,Time_1,acc_x,acc_y,acc_z,gyro_x,gyro_y,gyro_z,mag_x,mag_y,mag_z,acc,direction_change,theta,smooth_theta,dt,gryo_readings,complementary_theta
0,-0.0009455000982,-0.240100708,1.278341675,8.767268372,-0.09467618912,-0.1051210165,0.06356842071,-22.92828369,-31.26078033,49.01675415,8.863227431060057,0,233.74173894592326,0.0,0.0,359.99284164855925,0.0
1,0.01895549998,0.1868115234,1.154549103,10.35711227,-0.01027592644,0.05871709809,0.06425992399,-24.05801392,-36.39473724,52.931427,10.422938968923194,0,236.53409944038026,0.0,0.019901000078199997,359.99284164855925,0.0
2,0.03885549994,-0.02140548706,1.144669647,9.345366211,-0.08224706352,-0.05314359814,0.07605154812,-26.27325439,-38.53916168,54.08218384,9.41523214866951,0,235.71662125025625,0.0,0.019899999960000005,359.99284164855925,0.0
3,0.0587564999,0.05748046875,1.031954041,9.830806732,-0.06582947075,0.02765060589,0.07173399627,-26.10479736,-33.52210236,50.42266846,9.884988323157517,0,232.09089906224582,0.0,0.01990099996,359.99284164855925,0.0
4,0.07865749998,0.004041595459,1.005908203,9.421108704,-0.09254486114,-0.004356751218,0.068725802,-22.33877563,-35.56464386,51.80734253,9.47465866719963,0,237.86635066409866,0.0,0.01990100008,359.99284164855925,0.0
5,0.09855849994,0.08666976929,0.9538165283,9.704020386,-0.07735424489,0.05329455435,0.05663123354,-23.16879272,-40.19358063,55.88360596,9.751168610503596,0,240.0395538840238,0.0,0.01990099996,359.99284164855925,0.0
6,0.1184594999,0.009580078125,0.9469308472,9.520801392,-0.1033941582,0.04102819413,0.04981672019,-26.21636963,-36.35916901,52.4291687,9.567780774724351,0,234.20693568132083,0.0,0.01990099996,359.99284164855925,0.0
7,0.1383605,0.01496887207,0.9237290955,9.697883148,-0.09014998376,0.08788447082,0.04714708403,-24.54150391,-32.47942352,49.99786377,9.741788186019376,0,232.92524781892956,0.0,0.019901000099999996,359.99284164855925,0.0
8,0.1582604999,0.01167572021,0.9765692139,9.532926178,-0.07828129083,0.07900358737,0.05170815811,-22.62112427,-36.96231842,53.90509033,9.582823449650808,0,238.53315865984223,0.0,0.019899999899999993,359.99284164855925,0.0
9,0.1781614999,0.07753875732,0.9874964905,9.717043304,-0.03983642906,0.09675637633,0.06427066773,-24.56845093,-39.7783432,55.00952148,9.767399456838437,0,238.29911849719645,0.0,0.019901000000000002,359.99284164855925,0.0
10,0.1980625,0.02814147949,0.9686357117,9.746531982,-0.02078156546,0.0792171061,0.07616846263,-26.08981323,-34.63162994,50.32339478,9.794586911197293,0,233.00737864117406,0.0,0.01990100010000001,359.99284164855925,0.0
11,0.2179634999,0.005987548828,0.9696835327,9.854607239,-0.007891651243,0.06235579029,0.08243773878,-23.52386475,-32.93061066,50.78353882,9.902202070210532,0,234.46001809819043,0.0,0.019900999899999994,359.99284164855925,0.0
12,0.2378644999,-0.07544311523,0.8987310791,9.896071014,0.005148036405,0.03292544559,0.08845686913,-23.253479,-38.72171783,55.20550537,9.937083612927228,0,239.01400088759954,0.0,0.019901000000000002,359.99284164855925,0.0
13,0.2577655,-0.06571334839,0.8577163696,10.09919861,0.03489533067,0.02211660147,0.09474351257,-25.58450317,-38.05548859,53.42861938,10.135768751262152,0,236.0872687896461,0.0,0.019901000099999983,359.99284164855925,0.0
14,0.2776654999,-0.07484436035,0.9117539978,9.964179382,0.03612193093,-0.004939910024,0.09505298734,-24.99026489,-32.78606415,49.64590454,10.00608653707604,0,232.68454697751372,0.0,0.01989999990000002,359.99284164855925,0.0
15,0.2975664999,-0.0758921814,0.9499246216,9.843230896,0.02912117355,-0.01566946693,0.09698618203,-22.69018555,-34.72170258,52.38311768,9.889252291345818,0,236.83590100620134,0.0,0.019901000000000002,359.99284164855925,0.0
16,0.3174675,-0.07783813477,0.8442443848,9.777367859,0.03161921725,-0.02305963635,0.08798618615,-40.17272949,-9.664291382,18.45626831,9.814057754399911,0,193.5265254022986,0.0,0.01990100010000001,359.99284164855925,0.0
17,0.3373685,-0.01586700439,0.7934999084,9.743687897,0.04127871618,-0.01852130704,0.07248405367,-41.83355713,-6.054611206,13.70822144,9.775957635986533,0,188.2352896518566,0.0,0.019901000000000002,359.99284164855925,0.0
18,0.3572694999,0.01781295776,0.8090675354,9.630822601,0.03071539477,-0.01344992127,0.05326057225,-40.16821289,-2.091629028,11.68667603,9.664763398564643,0,182.98079918024632,0.0,0.019900999899999994,359.99284164855925,0.0
19,0.3771705,0.06750961304,0.7676037598,9.58890976,0.02075256221,0.005475957878,0.03757667169,-39.61291504,-6.33380127,17.09677124,9.61982138427399,0,189.0842617490233,0.0,0.01990100010000001,359.99284164855925,0.0
20,0.3970715,0.08861572266,0.6978488159,9.561067657,0.03036295064,0.02217470109,0.02701299824,-41.29779053,-9.232208252,17.61364746,9.58691089235146,0,192.60139849855645,0.0,0.019901000000000002,359.99284164855925,0.0
21,0.4169714999,0.1381626892,0.7726931763,9.570647736,0.03248495981,0.03029542044,0.01562750526,-41.70977783,-4.655029297,11.92773438,9.602783021603138,0,186.3681558296769,0.0,0.019899999899999965,359.99284164855925,0.0
22,0.4368725,0.1116677856,0.7339237976,9.60178299,0.02142138779,0.03492857888,0.002989953849,-39.63659668,-2.914016724,13.10424805,9.630438745045716,0,184.20472595054434,0.0,0.01990100010000001,359.99284164855925,0.0
23,0.4567735,0.07484436035,0.7616162109,9.530531158,0.004608959425,0.02675598301,-0.01313352212,-40.45065308,-8.334564209,17.82388306,9.561207302667938,0,191.64245064568507,0.0,0.019901000000000002,359.99284164855925,0.0
24,0.4766744999,0.005987548828,0.7120692444,9.620943146,0.004044102971,0.03726758435,-0.02809233777,-41.81951904,-8.115325928,15.63348389,9.647259998472402,0,190.98209037569362,0.0,0.019900999899999994,359.99284164855925,0.0
25,0.4965755,-0.08143066406,0.8027806091,9.664502563,-0.00069531193,0.03906214237,-0.04593334347,-40.50292969,-3.109680176,11.10195923,9.698128553985546,0,184.3903662605268,0.0,0.01990100010000001,359.99284164855925,0.0
26,0.5164765,-0.08442443848,0.9431886292,9.667346649,-0.01650990732,0.03814589232,-0.05737192929,-39.48693848,-4.907913208,15.08633423,9.7136153675136,0,187.08507533331027,0.0,0.019901000000000002,359.99284164855925,0.0
27,0.5363764999,-0.09999206543,0.8469387817,9.844129028,-0.0239277184,0.04336105287,-0.06188875064,-41.11276245,-9.57762146,18.96032715,9.881000963111411,0,193.11372451247382,0.0,0.01989999990000002,359.99284164855925,0.0
28,0.5562775,-0.2284249878,0.8216413879,9.782906342,-0.01783493534,0.03559429199,-0.06167444587,-40.76364136,-6.050125122,12.74978638,9.820006570349406,0,188.4421898861513,0.0,0.019901000099999955,359.99284164855925,0.0
29,0.5761785,-0.4480183411,0.8996292114,9.790690155,-0.0001046778634,0.01717078499,-0.06933792681,-39.17764282,-2.55255127,11.42727661,9.8421373117418,0,183.72773826968748,0.0,0.019901000000000058,359.99284164855925,0.0
30,0.5960794999,-0.3938310242,0.9939331055,9.71404953,0.0140110366,-0.009421661496,-0.07340215147,-39.88299561,-6.34463501,16.99981689,9.77270505874011,0,189.0389405372105,0.0,0.019900999899999938,359.99284164855925,0.0
31,0.6159805,-0.2624043274,0.9961784363,9.719438324,0.007810132578,-0.03054071404,-0.05629887804,-41.89196777,-8.954483032,17.45532227,9.7738789046124,0,192.06550523216475,0.0,0.019901000100000066,359.99284164855925,0.0
32,0.6358815,-0.1960922241,0.9505233765,9.785750427,-0.001765582711,-0.02412352525,-0.0271395389,-40.71575928,-4.739120483,11.18099976,9.83376114562257,0,186.63908167153227,0.0,0.019900999999999947,359.99284164855925,0.0
33,0.6557814999,-0.2233355713,0.9119036865,9.75386673,-0.001553755254,0.0008776257746,-0.01310998481,-38.83984375,-3.517288208,13.05465698,9.798947050446854,0,185.17452050041373,0.0,0.01989999990000002,359.99284164855925,0.0
34,0.6756825,-0.1507365417,0.9687854004,9.73515564,0.0009461008012,0.02851107344,-0.01351271942,-41.04946899,-7.908554077,18.21463013,9.7844019741656,0,190.90494235296887,0.0,0.019901000099999955,359.99284164855925,0.0
35,0.6955835,-0.06122268677,1.019529877,9.625733185,0.0009841308929,0.07410016656,-0.02811391093,-42.17166138,-7.663742065,15.31860352,9.679769043540306,0,190.29980574840278,0.0,0.019901000000000058,359.99284164855925,0.0
36,0.7154846666,-0.1067280579,0.8978329468,9.455537109,0.0008883103728,0.1079586595,-0.0337286666,-40.62734985,-2.282745361,11.03283691,9.498667111673024,0,183.21591976815276,0.0,0.019901166599999964,359.99284164855925,0.0
37,0.7353856666,-0.08202941895,0.7316784668,9.754615173,0.001827073749,0.1648164243,-0.02724528126,-39.8369751,-3.764602661,15.4664917,9.782361646232156,0,185.39843164622238,0.0,0.019901000000000058,359.99284164855925,0.0
38,0.7552866666,-0.03442840576,0.6698570251,9.821376343,0.002305857837,0.2017481476,-0.01237223111,-42.2532959,-7.983383179,19.59661865,9.844253502426634,0,190.6993977840162,0.0,0.019900999999999947,359.99284164855925,0.0
39,0.7751876666,0.04715194702,0.7551795959,9.793534241,0.01949278079,0.1832443476,-0.01226060186,-41.302948,-4.87097168,13.07678223,9.822720216814226,0,186.72598367371458,0.0,0.019901000000000058,359.99284164855925,0.0
40,0.7950876666,-0.1122665405,0.688717804,9.685908051,0.03287218139,0.1802445948,-0.03904096037,-38.85043335,-2.191085815,11.14886475,9.711011829983992,0,183.2279464961445,0.0,0.019899999999999918,359.99284164855925,0.0
41,0.8149886666,-0.3216810608,0.5728587341,9.895771637,-0.005815984681,0.1198337451,-0.09097694606,-40.29394531,-5.461608887,17.22180176,9.917557266069387,0,187.7190654634281,0.0,0.019901000000000058,359.99284164855925,0.0
42,0.8348896666,-0.479153595,0.4372407532,9.994416504,-0.003176738508,0.03215143085,-0.1345811635,-42.33874512,-7.411895752,17.51702881,10.015444518307108,0,189.92967958528092,0.0,0.019900999999999947,359.99284164855925,0.0
43,0.8547906666,-0.4543052673,0.4182302856,10.30397278,0.07386994362,-0.01434856281,-0.1721343249,-40.07354736,-3.959594727,11.09671021,10.322459246646146,0,185.64297566723678,0.0,0.019901000000000058,359.99284164855925,0.0
44,0.8746916666,-0.543968811,0.759969635,10.08632538,0.03735593706,-0.1199970171,-0.1904676259,-37.85195923,-3.638656616,12.70532227,10.12953185417248,0,185.4908924585965,0.0,0.019900999999999947,359.99284164855925,0.0
45,0.8945926666,-0.4267625427,1.03898941,9.764794006,0.008322205395,-0.1587607712,-0.1805191636,-41.47790527,-7.417404175,18.34848022,9.82918242996626,0,190.13890827756666,0.0,0.019901000000000058,359.99284164855925,0.0
46,0.9144936666,-0.5258564758,1.207239532,9.177864532,0.02836275846,-0.07274448872,-0.1548307538,-42.5519104,-6.50062561,15.98425293,9.27184715623095,0,188.68587997744453,0.0,0.019900999999999947,359.99284164855925,0.0
47,0.9343936666,-0.8786727905,1.410816193,9.671537933,-0.02716441453,-0.07751856744,-0.1186247095,-38.80981445,-3.351974487,10.39785767,9.813313109885671,0,184.9363432496002,0.0,0.01990000000000003,359.99284164855925,0.0
48,0.9542946666,-0.7786807251,1.544188843,9.717642059,-0.0604943037,-0.1492865831,-0.05378364772,-38.89178467,-5.119232178,15.61282349,9.87033079695578,0,187.49859763099536,0.0,0.019900999999999947,359.99284164855925,0.0
49,0.9741956666,-0.6367758179,1.087338867,9.828860779,-0.005382582545,-0.1193900928,0.004377288744,-42.79296875,-8.237686157,19.46743774,9.909303379497246,0,190.8962033610457,0.0,0.019901000000000058,359.99284164855925,0.0
50,0.9940966666,-0.675844574,0.9163943481,9.734856262,-0.01538323238,-0.122729823,0.03888249397,-41.27105713,-5.079467773,13.34249878,9.801222930391669,0,187.0164375366306,0.0,0.019900999999999947,359.99284164855925,0.0
51,1.013997667,-0.6258485413,0.912203064,9.518406372,-0.03458962962,-0.09307262301,0.05429701507,-37.98553467,-3.397827148,11.42578125,9.582476751297053,0,185.11153508050387,0.0,0.01990100039999998,359.99284164855925,0.0
52,1.033898667,-0.4219725037,1.242117004,9.419911194,-0.07596594095,-0.04772824049,0.07479906827,-39.96325684,-6.180831909,17.81985474,9.510817123063156,0,188.791868956328,0.0,0.01990100000000017,359.99284164855925,0.0
53,1.053798667,-0.5063969421,1.016985168,9.673034821,-0.1073617861,-0.05723902956,0.1131607369,-43.59039307,-6.739807129,18.06332397,9.739522541848688,0,188.7892911653938,0.0,0.019899999999999807,359.99284164855925,0.0
54,1.073699667,-0.33230896,0.8244854736,9.683213654,-0.03352894261,0.009576804936,0.1393521428,-40.70782471,-3.610519409,11.78527832,9.723930903193716,0,185.06850041209827,0.0,0.01990100000000017,359.99284164855925,0.0
55,1.093600667,-0.2293231201,0.8753796387,9.564211121,-0.01700749248,0.0476649031,0.144768104,-38.22940063,-4.409942627,13.72921753,9.606925261098008,0,186.58025549017313,0.0,0.019900999999999947,359.99284164855925,0.0
56,1.113501667,-0.09310638428,1.020727386,9.444759521,-0.05979448184,0.08258852363,0.1269023418,-31.4659729,-33.58227539,12.03393555,9.5002123978806,0,226.86342367333214,0.0,0.019900999999999947,359.99284164855925,0.0
57,1.133402667,0.03008743286,1.037342834,9.340127106,-0.09777829796,0.147200793,0.1230664551,-32.9180603,-31.67384338,9.705596924,9.39760393744614,0,223.896462885302,0.0,0.019900999999999947,359.99284164855925,0.0
58,1.153303667,0.133971405,1.066083069,9.338779907,-0.1263332367,0.180351004,0.1329880655,-28.41564941,-28.91854858,4.595825195,9.400387842996322,0,225.5025492996004,0.0,0.01990100000000017,359.99284164855925,0.0
59,1.173204667,0.3797602844,1.02147583,9.286388855,-0.1543973088,0.2232317477,0.1155368909,-28.13885498,-31.951828,9.276947021,9.350114903633536,0,228.63075850133362,0.0,0.019900999999999947,359.99284164855925,0.0
60,1.193104667,0.3504212952,1.067879333,9.345815277,-0.1947272122,0.271142602,0.08179980516,-32.72558594,-33.27168274,12.42044067,9.413151679739617,0,225.47408519173374,0.0,0.01990000000000003,359.99284164855925,0.0
61,1.213005667,0.3025209045,1.009051666,9.520202637,-0.1501453072,0.3222175539,0.06944493204,-30.84298706,-29.61541748,6.699066162,9.578306865613497,0,223.83680534786762,0.0,0.019900999999999947,359.99284164855925,0.0
62,1.232906667,0.1040336609,1.094374237,9.439221039,-0.08840610087,0.3449637592,0.0726487264,-26.13195801,-29.47662354,5.143951416,9.5030190884955,0,228.44199809720857,0.0,0.019900999999999947,359.99284164855925,0.0
63,1.252807667,-0.07918533325,1.190474396,9.454489288,-0.1145874187,0.3259592652,0.06545293331,-35.6835022,-33.03152466,-1.768035889,9.52947361093152,0,222.78983209800825,0.0,0.019900999999999947,359.99284164855925,0.0
64,1.272708667,-0.2210902405,0.9029223633,9.676178284,-0.1626272649,0.2408012599,0.05945834145,-39.86013794,-32.07298279,-2.2628479,9.720729184189054,0,218.82147829272154,0.0,0.01990100000000017,359.99284164855925,0.0
65,1.292609667,-0.04430786133,0.8912466431,9.972711639,-0.1262917966,0.1751880795,0.07244633138,-36.60006714,-28.58802795,-7.892456055,10.012555178377731,0,217.9931185006026,0.0,0.019900999999999947,359.99284164855925,0.0
66,1.312510667,-0.1645079041,0.8514294434,9.974358215,-0.09723314643,0.1352462769,0.09656839073,-32.87612915,-31.08033752,-6.073028564,10.011983657035094,0,223.39165201234414,0.0,0.019900999999999947,359.99284164855925,0.0
67,1.332410667,-0.3480262756,0.872535553,9.879605255,-0.09890347719,0.1056922078,0.1176602468,-37.02166748,-33.3168335,-1.756439209,9.924164477394587,0,221.98493181540374,0.0,0.01990000000000003,359.99284164855925,0.0
68,1.352311667,-0.3143463135,0.926124115,9.894125061,-0.1025732085,0.1104241237,0.1251585931,-39.31216431,-30.20445251,-4.626617432,9.942345307014026,0,217.5359128653898,0.0,0.019900999999999947,359.99284164855925,0.0
69,1.372212667,-0.4516108704,0.7908055115,9.949360199,-0.1036512554,0.07803697139,0.1290448606,-34.5953064,-28.25131226,-8.359954834,9.990950610664008,0,219.23585561202634,0.0,0.01990100000000017,359.99284164855925,0.0
70,1.392113667,-0.4781057739,0.6676116943,10.1961969,-0.05411491543,0.06264809519,0.1307013184,-33.52331543,-32.11459351,-4.154815674,10.22920924260386,0,223.7705057565089,0.0,0.019900999999999947,359.99284164855925,0.0
71,1.412014667,-0.569715271,0.8168513489,9.915380859,-0.04328852892,0.007965825498,0.1129473969,-13.47070312,-12.95004272,4.425079346,9.965269649900796,0,223.87104690789954,0.0,0.019900999999999947,359.99284164855925,0.0
72,1.431915667,-0.4794529724,0.997375946,9.843380585,-0.03871310875,-0.05104069784,0.08933915943,-12.55117798,-8.783416748,-0.1835632324,9.905391222539246,0,214.98464254460322,0.0,0.019900999999999947,359.99284164855925,0.0
73,1.451815667,-0.4023632813,0.9904902649,9.748777313,-0.005261199083,-0.06612548232,0.09310859442,-8.238037109,-9.827301025,-1.057281494,9.807223168331785,0,230.02754453625178,0.0,0.01990000000000003,359.99284164855925,0.0
74,1.471716667,-0.3764671326,1.011147308,9.755213928,0.04111029953,-0.05702414736,0.1084372401,-9.911987305,-13.47166443,4.332611084,9.81470046213581,0,233.6556438354741,0.0,0.019900999999999947,359.99284164855925,0.0
75,1.491617667,-0.3912863159,0.9674382019,9.73979599,0.06534288079,-0.09630805254,0.1136235222,-14.18411255,-11.02919006,2.498352051,9.795543251005846,0,217.86769032883737,0.0,0.01990100000000017,359.99284164855925,0.0
76,1.511518667,-0.3766168213,0.9521699524,9.827663269,0.07571350038,-0.09294437617,0.1108811498,-11.53994751,-7.596191406,-1.072784424,9.880861965293883,0,213.35498387882294,0.0,0.019900999999999947,359.99284164855925,0.0
77,1.531419667,-0.4161346436,0.8940907288,9.802066498,0.07320910692,-0.1523128301,0.1066813916,-8.290771484,-11.50349426,1.180480957,9.851551852583642,0,234.21904149089846,0.0,0.019900999999999947,359.99284164855925,0.0
78,1.551320667,-0.3188369751,0.8940907288,9.859247589,0.09294228256,-0.1476431638,0.1109246984,-12.11883545,-13.94337463,4.239776611,9.904838124331937,0,229.00457651587843,0.0,0.019900999999999947,359.99284164855925,0.0
79,1.571221667,-0.3426374817,0.8855584717,9.621541901,0.102658771,-0.139431417,0.12684533,-14.80386353,-9.6771698,1.261199951,9.668282308836666,0,213.17233115314164,0.0,0.01990100000000017,359.99284164855925,0.0
80,1.591121667,-0.3257226562,0.8159532166,9.733808441,0.1177771613,-0.1370687932,0.1318535954,-10.44952393,-8.356155396,-1.062805176,9.773377188389116,0,218.6482258479259,0.0,0.019899999999999807,359.99284164855925,0.0
81,1.611022667,-0.3240760803,0.7999365234,9.543404388,0.1497859061,-0.142471239,0.1331818402,-9.710113525,-13.37643433,3.619476318,9.5823531066325,0,234.02365413894688,0.0,0.01990100000000017,359.99284164855925,0.0
82,1.630923667,-0.3936813354,1.081950073,9.570797424,0.1523522437,-0.1387436688,0.1391393244,-14.01733398,-13.18374634,3.611816406,9.63980105010223,0,223.24469800283626,0.0,0.019900999999999947,359.99284164855925,0.0
83,1.650824667,-0.4682263184,1.08344696,9.612560577,0.124260582,-0.1217472404,0.1420572698,-7.539001465,-46.96028137,-30.73196411,9.684751625461038,0,260.8795606936619,0.0,0.019900999999999947,359.99284164855925,0.0
84,1.670725667,-0.4249662781,1.002615051,9.716594238,0.1136600226,-0.1075505316,0.1384061873,-3.555236816,-48.59988403,-29.95870972,9.77742485851713,0,265.8160832781033,0.0,0.019900999999999947,359.99284164855925,0.0
85,1.690626667,-0.3429368591,1.061742096,9.822124786,0.1216443405,-0.08279141784,0.1361308694,-4.378051758,-53.13673401,-25.85946655,9.885293990544914,0,265.28991425496065,0.0,0.01990100000000017,359.99284164855925,0.0
86,1.71052775,-0.3438349915,1.123862915,9.835596771,0.1131586656,-0.05538364127,0.1404681355,-8.22253418,-49.44760132,-28.64157104,9.905566828546348,0,260.5587983492973,0.0,0.01990108299999993,359.99284164855925,0.0
87,1.73042775,-0.3927832031,1.288969574,9.789492645,0.1104457006,-0.01511718053,0.1462943256,-6.274597168,-46.06028748,-31.26812744,9.88179576058139,0,262.2425902545734,0.0,0.01990000000000003,359.99284164855925,0.0
88,1.75032875,-0.4474195862,1.501826935,9.516161041,0.08798539639,-0.02523381263,0.1343394816,-3.76348877,-50.9316864,-27.9269104,9.644324205824535,0,265.7739305890672,0.0,0.019900999999999947,359.99284164855925,0.0
89,1.77022975,-0.4396357727,1.510209503,9.600286102,0.07725274563,-0.04473971203,0.1140492931,-6.380371094,-53.18666077,-26.19726562,9.728283794988888,0,263.15938047509695,0.0,0.019900999999999947,359.99284164855925,0.0
90,1.79013075,-0.592767334,0.9900411987,9.598938904,0.09239143878,-0.0860529393,0.1277124137,-8.280548096,-48.25340271,-30.09143066,9.668049584590758,0,260.2625752720425,0.0,0.01990100000000017,359.99284164855925,0.0
91,1.81003175,-0.1139131165,1.662592621,9.561217346,0.1211726442,-0.08482976258,0.1017993838,-4.822906494,-46.98013306,-29.88668823,9.705362824694689,0,264.13863841271103,0.0,0.019900999999999947,359.99284164855925,0.0
92,1.82993275,0.06047424316,1.939067688,9.392817535,0.1193098128,-0.07751942426,0.07284617424,-4.695526123,-52.55276489,-25.88647461,9.591071987975845,0,264.89424919525646,0.0,0.019900999999999947,359.99284164855925,0.0
93,1.84983375,0.0513432312,1.90254364,9.326655121,0.09184506536,-0.06269166619,0.04924655333,-11.08752441,-27.03286743,-12.73666382,9.518865697947945,0,247.69902485437947,0.0,0.019900999999999947,359.99284164855925,0.0
94,1.86973375,-0.06661148071,1.778302002,9.27995224,0.05589190871,-0.0808673501,0.02065750025,-10.34448242,-21.64401245,-16.57897949,9.449037447082144,0,244.45512142398817,0.0,0.01990000000000003,359.99284164855925,0.0
95,1.88963475,-0.1676513672,1.825154572,9.129814453,0.05030954629,-0.07896903902,-0.002554571489,-7.562103271,-24.03283691,-13.91989136,9.31197122734087,0,252.53344658866686,0.0,0.019900999999999947,359.99284164855925,0.0
96,1.90953575,-0.2418969727,1.936972046,9.125174103,0.06227336824,-0.03383883089,-0.0261640884,-8.749572754,-28.97564697,-10.30596924,9.331622434627793,0,253.19762759156305,0.0,0.01990100000000017,359.99284164855925,0.0
97,1.92943675,-0.3369493103,2.06525528,8.908724213,0.03811179101,-0.02053579502,-0.06029235572,-10.54266357,-24.92442322,-14.95654297,9.151184694484751,0,247.07235440415906,0.0,0.019900999999999947,359.99284164855925,0.0
98,1.94933775,-0.3876937866,2.055076447,8.926237793,0.02660645545,-0.001304961508,-0.09406366944,-9.288085938,-21.41967773,-16.18362427,9.167953250991408,0,246.55728845559423,0.0,0.019900999999999947,359.99284164855925,0.0
99,1.96923875,-0.5086422729,1.840722198,9.080566864,0.02774463966,0.003794312011,-0.09620694071,-7.804504395,-26.35383606,-11.59274292,9.279206310001175,0,253.5037126801697,0.0,0.019900999999999947,359.99284164855925,0.0
100,1.98913975,-0.3297642517,2.064207458,9.221573639,0.04553535208,0.01460221875,-0.118964456,-9.994018555,-28.3132019,-11.41156006,9.455533685142358,0,250.55794299605526,0.0,0.01990100000000017,359.99284164855925,0.0
101,2.00903975,-0.240100708,2.190844116,9.273216248,0.02626913786,-0.0136465542,-0.1414453834,-10.17172241,-23.43925476,-16.3326416,9.53152589425036,0,246.5410369216574,0.0,0.019899999999999807,359.99284164855925,0.0
102,2.02894075,-0.08861572266,2.249073029,9.388626251,0.01136459969,-0.08170753717,-0.1606354713,-7.81539917,-23.01994324,-14.16360474,9.654661315501652,0,251.24736340245,0.0,0.019900999999999947,359.99284164855925,0.0
103,2.04884175,0.007484436035,2.257904663,9.624385986,0.03993616253,-0.1044528708,-0.163034156,-9.062530518,-28.26210022,-10.11743164,9.885696489954215,0,252.22102228422966,0.0,0.019900999999999947,359.99284164855925,0.0
104,2.06874275,0.007634124756,2.351759491,9.68366272,0.03352342546,-0.1372867823,-0.1642652005,-10.40319824,-27.07537842,-12.57766724,9.96514699631105,0,248.98167970588116,0.0,0.01990100000000039,359.99284164855925,0.0
105,2.08864375,0.01257385254,2.427801361,9.587412872,0.006103578489,-0.1774576157,-0.1614949107,-9.055511475,-21.85769653,-16.01559448,9.890038580735286,0,247.49606866102943,0.0,0.019900999999999947,359.99284164855925,0.0
106,2.10854475,0.1422042847,2.517614594,9.804311829,0.001660145354,-0.1482320279,-0.1619958133,-8.224639893,-24.95018005,-11.40402222,10.123395465098564,0,251.755583354688,0.0,0.019900999999999947,359.99284164855925,0.0
107,2.12844575,0.190254364,2.534230042,10.03333557,0.01200034842,-0.1414379179,-0.1722646654,-10.04605103,-29.54696655,-8.951721191,10.3501855678545,0,251.22182354429327,0.0,0.019900999999999947,359.99284164855925,0.0
108,2.14834575,-0.08681945801,2.217937775,10.28316605,0.07228206843,-0.1188712716,-0.1888042986,-23.94955444,-15.30157471,-28.72180176,10.519994753037365,0,212.57485643257047,0.0,0.019899999999999807,359.99284164855925,0.0
109,2.16824675,-0.2951861572,2.366728363,10.10952713,0.09736280143,-0.1527983397,-0.2259785235,-22.23858643,-12.8894043,-28.98321533,10.387062953686051,0,210.09642583808622,0.0,0.019900999999999947,359.99284164855925,0.0
110,2.18814775,-0.2878514099,2.219734039,10.2068248,0.1261055619,-0.2087692469,-0.2807220519,-23.00402832,-17.33912659,-23.58544922,10.44937080096078,0,217.00690643847028,0.0,0.01990100000000039,359.99284164855925,0.0
111,2.20804875,-0.1803749084,2.298919373,10.14724869,0.1903920919,-0.230372414,-0.3267006576,-25.29907227,-18.93199158,-24.69320679,10.405970467373129,0,216.80851910227787,0.0,0.019900999999999947,359.99284164855925,0.0
112,2.22794975,-0.007933502197,2.700833588,10.08482849,0.1564403027,-0.2511016428,-0.3467792571,-23.84619141,-14.63621521,-29.52157593,10.440226562830988,0,211.54059527002212,0.0,0.019900999999999947,359.99284164855925,0.0
113,2.24785075,0.1842668152,2.261946259,10.69675598,0.05867080763,-0.2219077349,-0.3489871621,-22.44638062,-15.01115417,-26.40063477,10.93484995934804,0,213.77286809349937,0.0,0.019900999999999947,359.99284164855925,0.0
114,2.26775175,0.4436773682,1.461860046,11.40942398,0.005998861976,-0.193935439,-0.3192356229,11.55383301,-24.10622406,-1.500335693,11.511248409991984,0,295.6078586354204,0.0,0.019900999999999947,359.99284164855925,0.0
115,2.28765175,0.6411167908,0.7780819702,11.7290094,0.07044555247,-0.1263401955,-0.2961109579,11.38421631,-22.06803131,-5.297729492,11.772259927349737,0,297.2878125029396,0.0,0.01990000000000025,359.99284164855925,0.0
116,2.30755275,0.2176473999,-0.2516267395,11.20914047,0.1546939611,-0.07345838845,-0.2719355822,13.55844116,-18.16240692,-8.74420166,11.214076711121002,0,306.7417533880647,0.0,0.019900999999999947,359.99284164855925,0.0
117,2.32745375,-0.2200424194,-0.7399113464,10.2095192,0.1537380368,-0.07627888769,-0.2488142997,12.74700928,-21.6379776,-3.331115723,10.238660545307454,0,300.5024894861716,0.0,0.019900999999999947,359.99284164855925,0.0
118,2.34735475,-0.1073268127,-0.2097138977,9.253607025,0.1109603718,-0.1230533198,-0.2591712773,10.81500244,-25.27999115,-1.603210449,9.2566053138687,0,293.16166478901835,0.0,0.019900999999999947,359.99284164855925,0.0
119,2.36725575,-0.1932481384,-0.3689826965,8.932375031,0.157326594,-0.1186060086,-0.2495455295,12.54156494,-21.13214874,-7.517456055,8.942081232450516,0,300.6883984536553,0.0,0.019900999999999947,359.99284164855925,0.0
120,2.38715675,-0.0975970459,-0.5843847656,9.403744812,0.2609522343,0.001176949358,-0.2174480855,5.034210205,5.931167603,-15.22677612,9.422390738387508,0,49.67632850898414,0.0,0.019900999999999947,359.99284164855925,0.0
121,2.40705775,-0.005688171387,-0.5545967102,9.627978516,0.2712755203,0.06037079543,-0.1739419699,2.778076172,1.743118286,-8.95324707,9.643940075032402,0,32.106428625019184,0.0,0.019900999999999947,359.99284164855925,0.0
122,2.42695775,0.2667453003,-0.5382806396,10.00758911,0.265352726,0.1227793545,-0.1434977353,0.7754821777,1.484970093,-11.21606445,10.025604166173274,0,62.425502863105265,0.0,0.01990000000000025,359.99284164855925,0.0
123,2.44685875,0.3745211792,-0.1908531189,10.21071671,0.2237871587,0.127637133,-0.1235939786,4.391479492,5.382339478,-16.41894531,10.219365281588502,0,50.78881096075721,0.0,0.019900999999999947,359.99284164855925,0.0
124,2.46675975,0.1821711731,-0.002993774414,9.902807007,0.1476817429,0.09052573144,-0.1056717038,4.80581665,3.981231689,-12.54641724,9.9044829202176,0,39.63900936917017,0.0,0.019900999999999947,359.99284164855925,0.0
125,2.48666075,0.07918533325,0.2896476746,9.493408356,0.09436180443,0.08178470284,-0.1007909253,1.31439209,0.1168518066,-8.426574707,9.498156047684924,0,5.080341115613551,0.0,0.019900999999999947,359.99284164855925,0.0
126,2.50656175,-0.1213975525,0.5956114197,9.004524994,0.04149064794,0.08261184394,-0.1094750836,1.860870361,2.249801636,-13.53076172,9.025018598130464,0,50.404950740663125,0.0,0.019900999999999947,359.99284164855925,0.0
127,2.52646275,-0.2609074402,0.8550219727,8.611143036,0.0007232977077,0.1080529019,-0.1190158948,4.581756592,-1.054351807,-22.31884766,8.6574199189252,0,347.04072959364436,0.0,0.019900999999999947,359.99284164855925,0.0
128,2.54636375,-0.2881507874,0.9439370728,8.813222809,-0.01636279747,0.1582171172,-0.1368657053,2.811859131,-4.530838013,-16.21557617,8.868311245934219,0,301.82393045482996,0.0,0.019900999999999947,359.99284164855925,0.0
129,2.56626375,-0.2101629639,1.045276337,8.868907013,-0.0241493471,0.1669816673,-0.1470124274,-0.09167480469,-5.754501343,-15.93692017,8.932764560724074,0,269.0872996998368,0.0,0.01990000000000025,359.99284164855925,0.0
130,2.58616475,-0.07783813477,0.9907896423,9.153914337,-0.01609909162,0.1711178869,-0.145450443,3.172821045,-2.225494385,-21.46963501,9.207707129337226,0,324.9532397435692,0.0,0.019900999999999947,359.99284164855925,0.0
131,2.60606575,-0.05194198608,0.8783734131,9.263187103,-0.02183447406,0.1247395501,-0.1260131598,5.81262207,-2.458145142,-20.93893433,9.304884369402147,0,337.07660452576835,0.0,0.019900999999999947,359.99284164855925,0.0
132,2.62596675,-0.003592529297,0.9238787842,9.31153656,-0.005099010654,0.09259980172,-0.0941535309,2.189178467,-5.792434692,-14.97006226,9.357258039745313,0,290.70346034599464,0.0,0.019900999999999947,359.99284164855925,0.0
133,2.64586775,0.03861968994,1.135688324,9.050030365,-0.03999760747,0.06026795879,-0.04998207092,0.5298156738,-3.934432983,-18.4147644,9.121092536376496,0,277.66938551274075,0.0,0.019900999999999947,359.99284164855925,0.0
134,2.66576875,0.04400848389,1.158890076,9.148974609,-0.1046065912,0.01738150418,-0.003250066191,5.210083008,-1.250442505,-22.53106689,9.222185172237234,0,346.504031896928,0.0,0.019900999999999947,359.99284164855925,0.0
135,2.68566975,0.09595046997,0.7779322815,9.58651474,-0.09193371981,0.02827288583,0.0529024601,5.128387451,-3.917556763,-18.15112305,9.618505600535071,0,322.6239203729396,0.0,0.01990100000000039,359.99284164855925,0.0
136,2.70557075,0.1137634277,0.5355862427,9.836794281,-0.08137934655,0.0256467443,0.1062548906,0.292388916,-5.333770752,-15.27267456,9.85202093316726,0,273.13772393438745,0.0,0.019900999999999947,359.99284164855925,0.0
137,2.72547075,0.1369651794,0.5459147644,9.862540741,-0.1089680418,-0.006033374928,0.1369936913,1.617431641,-2.462356567,-20.69940186,9.878587563930523,0,303.299442432649,0.0,0.019899999999999807,359.99284164855925,0.0
138,2.74537175,0.03532653809,0.7936495972,9.67078949,-0.1395326704,-0.05465493724,0.1464791894,6.233306885,-1.447250366,-22.06744385,9.703365241364647,0,346.9286525779954,0.0,0.019900999999999947,359.99284164855925,0.0
139,2.76527275,-0.2323168945,1.033750305,9.378447418,-0.1406975389,-0.07187244296,0.1459842771,3.466827393,-4.736038208,-16.83718872,9.43810822171205,0,306.20450128818806,0.0,0.019900999999999947,359.99284164855925,0.0
140,2.78517375,-0.3212319946,1.197809143,9.466614075,-0.1391454339,-0.03477347642,0.1560110152,-0.5350036621,-3.874633789,-16.38458252,9.547498037831543,0,262.1383948684185,0.0,0.019900999999999947,359.99284164855925,0.0
141,2.80507475,-0.3522175598,1.351838837,9.609117737,-0.1566919386,0.01043120399,0.17625539,2.91192627,-0.5646972656,-21.7878418,9.710132292311004,0,349.02510240860494,0.0,0.01990100000000039,359.99284164855925,0.0
142,2.82497575,-0.3309617615,1.435215454,9.803264008,-0.1786019802,0.07150689512,0.1872068644,6.155975342,-2.333847046,-20.49087524,9.91329230364584,0,339.23733160430106,0.0,0.019900999999999947,359.99284164855925,0.0
143,2.84487675,-0.3954776001,1.375040588,9.959089966,-0.2073595375,0.1066077277,0.1771505028,2.11730957,-5.055114746,-15.40371704,10.06134246021425,0,292.7261293654703,0.0,0.019900999999999947,359.99284164855925,0.0
144,2.86477675,-0.5766009521,1.216220856,10.02210892,-0.1847601682,0.1322509497,0.142505914,0.2724914551,-1.200683594,-19.01934814,10.11208826271189,0,282.7865148238237,0.0,0.019899999999999807,359.99284164855925,0.0
145,2.88467775,-0.7655081177,1.151705017,9.729916534,-0.1264636815,0.1166225225,0.0846266076,5.053070068,1.674377441,-26.12435913,9.827700793321606,0,18.333051077511396,0.0,0.019900999999999947,359.99284164855925,0.0
146,2.90457875,-0.7453001404,1.210382996,9.566007385,-0.07142621279,0.08773134649,0.02537817694,5.785675049,-1.85925293,-22.62963867,9.671039064452213,0,342.18495578354424,0.0,0.01990100000000039,359.99284164855925,0.0
147,2.92447975,-0.4827461243,1.47787674,9.379046173,-0.06506817788,0.04328095913,-0.007535194978,0.928314209,-2.385955811,-20.12417603,9.507032691351474,0,291.2597351971051,0.0,0.019900999999999947,359.99284164855925,0.0
148,2.94438075,-0.1050814819,1.45677063,9.481133881,-0.06184687465,0.03350001946,-0.01008933038,1.56161499,1.600814819,-24.87750244,9.592972555767844,0,45.71017220154114,0.0,0.019900999999999947,359.99284164855925,0.0
149,2.96428175,0.09160949707,1.341210938,9.809550934,-0.05333280191,0.07229015231,0.02494272962,6.451873779,0.9849243164,-25.13439941,9.901238741031577,0,8.679597628201208,0.0,0.019900999999999947,359.99284164855925,0.0
150,2.98418275,0.1899549866,1.12910202,10.05638763,-0.03876477107,0.07958913594,0.06928963214,3.897064209,-2.755615234,-20.95401001,10.121357934255624,0,324.7358582467222,0.0,0.019900999999999947,359.99284164855925,0.0
151,3.00408375,0.2860551453,0.9479786682,10.18976028,-0.005993887782,0.06478916109,0.08903327584,-0.01266479492,-0.4204406738,-21.91168213,10.23775882043431,0,268.27461997317585,0.0,0.019900999999999947,359.99284164855925,0.0
152,3.02398375,0.2146536255,1.17939743,9.728569336,-0.01370799541,-0.009105240926,0.08096118271,3.015655518,3.000518799,-25.83972168,9.802148529898451,0,44.85584389037533,0.0,0.01990000000000025,359.99284164855925,0.0
153,3.04388475,0.1571731567,1.412612457,9.370813293,-0.04933885857,-0.05663995445,0.05506076664,6.600219727,-0.6770019531,-23.9666748,9.477991302334273,0,354.1435024243078,0.0,0.019900999999999947,359.99284164855925,0.0
154,3.06378575,0.2505789185,1.567390594,9.175469513,-0.09061869979,-0.07982622087,0.03455696627,2.636230469,-3.449066162,-20.41522217,9.31175299567964,0,307.3918246368369,0.0,0.019900999999999947,359.99284164855925,0.0
155,3.08368675,0.4724176025,1.61828476,9.331744537,-0.133838132,-0.07811766118,0.01474306919,0.482421875,1.672027588,-23.83267212,9.482799167937149,0,73.90582330258415,0.0,0.019900999999999947,359.99284164855925,0.0
156,3.10358775,0.6264472961,1.454974365,9.619745636,-0.1529967487,-0.08100277185,-0.003652818501,4.90133667,2.580551147,-25.64651489,9.749302165741874,0,27.76678109669866,0.0,0.019900999999999947,359.99284164855925,0.0
157,3.12348875,0.6366261292,1.540596313,9.704319763,-0.1319048405,-0.05060674995,-0.01080754399,5.75604248,-1.796005249,-21.78488159,9.84644869435482,0,342.67098975067995,0.0,0.019900999999999947,359.99284164855925,0.0
158,3.14338975,0.3147953796,1.84521286,9.364376678,-0.1346710622,-0.01752354577,-0.01596989855,1.220184326,-1.609954834,-21.58065796,9.549631259750146,0,307.15847831477953,0.0,0.019900999999999947,359.99284164855925,0.0
159,3.16328975,0.01526824951,1.97155014,9.106612701,-0.1480262876,0.010629097,-0.01474867389,1.520782471,2.918548584,-25.65670776,9.317598293551384,0,62.47711017187583,0.0,0.01990000000000025,359.99284164855925,0.0
160,3.18319075,-0.0288899231,2.10028244,9.073531494,-0.1453433186,0.02354357205,-0.0004102768144,5.72479248,1.322174072,-24.49676514,9.313484564224012,0,13.004765946651837,0.0,0.019900999999999947,359.99284164855925,0.0
161,3.20309175,-0.05553451538,2.065704346,9.160350952,-0.116041027,0.01802671514,0.02275518887,4.003814697,-2.917633057,-21.37759399,9.39054035140093,0,323.91867846082914,0.0,0.019900999999999947,359.99284164855925,0.0
162,3.22299275,0.03113525391,2.077230377,9.17352356,-0.06818003207,0.00594573468,0.05008915812,0.6299743652,0.7372283936,-23.05224609,9.4058168145591,0,49.485540636845016,0.0,0.019900999999999947,359.99284164855925,0.0
163,3.24289375,0.1389111328,2.048490143,9.238937531,-0.02325719222,-0.007861763239,0.078602314,3.303070068,4.433486938,-23.96969604,9.464331718114297,0,53.312872924817455,0.0,0.019900999999999947,359.99284164855925,0.0
164,3.26279475,0.2671943665,2.129621429,9.242230682,-0.002477286384,0.0004270032514,0.1021067351,5.597564697,-0.3006134033,-20.23254395,9.488177287532498,0,356.925922248614,0.0,0.019900999999999947,359.99284164855925,0.0
165,3.28269575,0.4218228149,2.136357422,9.40164917,-0.00140366843,-0.01260912418,0.12948367,2.848876953,-2.707107544,-18.87069702,9.650542193963318,0,316.4616719315209,0.0,0.019900999999999947,359.99284164855925,0.0
166,3.30259675,0.5580395508,2.081721039,9.683363342,0.03954856098,0.01636996306,0.1670481861,1.887237549,3.037704468,-22.69281006,9.920307265284766,0,58.14851654381168,0.0,0.01990100000000039,359.99284164855925,0.0
167,3.32249675,0.4047583008,1.906285858,9.564809875,0.07631093264,0.02191071399,0.198224932,4.94241333,3.551681519,-22.74102783,9.76131871210928,0,35.70150806087768,0.0,0.019899999999999807,359.99284164855925,0.0
168,3.34239775,0.4605921936,2.36822525,9.530830536,0.100080885,0.05260251835,0.1988285184,5.473052979,-1.439376831,-18.95428467,9.831447844010205,0,345.2652517638543,0.0,0.019900999999999947,359.99284164855925,0.0
169,3.36229875,0.2296224976,2.478695526,9.373657379,0.100891538,0.05976176262,0.2071595341,1.978820801,-0.904800415,-20.26211548,9.698562298655284,0,335.4281198914011,0.0,0.019900999999999947,359.99284164855925,0.0
170,3.38219975,0.1182540894,2.452200623,9.575288086,0.12413349,0.06539654732,0.2285614312,2.91796875,4.417633057,-24.04388428,9.885009552600089,0,56.55413533887073,0.0,0.019900999999999947,359.99284164855925,0.0
171,3.40210075,0.2142045593,2.492167511,9.768985291,0.1630860567,0.05754147843,0.254059881,5.447570801,1.68649292,-20.59234619,10.084138838387895,0,17.201805034500914,0.0,0.019900999999999947,359.99284164855925,0.0
172,3.42200175,0.2335144043,2.483784943,9.869576111,0.1826746762,0.06772903353,0.2717343271,3.751251221,-2.835327148,-18.61981201,10.179992594835763,0,322.91673381880673,0.0,0.01990100000000039,359.99284164855925,0.0
173,3.44190275,0.3278182983,2.653382263,10.01417542,0.1536932439,0.06207531691,0.2883645594,11.25292969,11.40350342,-28.42242432,10.364922171093978,0,45.38077980668141,0.0,0.019900999999999947,359.99284164855925,0.0
174,3.46180275,0.3796105957,2.300715637,10.55036041,0.1482960284,0.03372616693,0.2934250832,12.8508606,15.32606506,-29.95812988,10.804975771726626,0,50.020265755637844,0.0,0.019899999999999807,359.99284164855925,0.0
175,3.48170375,0.4104464722,2.259700928,10.8941954,0.1908529103,0.006512050983,0.3078506291,13.94500732,10.39677429,-25.02444458,11.133652051502535,0,36.70656605240916,0.0,0.019900999999999947,359.99284164855925,0.0
176,3.50160475,0.4417314148,2.610571289,10.8650061,0.1604692936,0.003163052723,0.3401668072,11.83096313,8.150772095,-25.0625,11.18295876102606,0,34.56434096978284,0.0,0.019900999999999947,359.99284164855925,0.0
177,3.52150575,0.2707868958,2.626138916,10.94284424,0.0002822144888,0.03563832492,0.3933922052,12.06091309,13.52677917,-29.8527832,11.256809992620814,0,48.278773214298965,0.0,0.01990100000000039,359.99284164855925,0.0
178,3.54140675,0.4358935547,2.587818604,11.63275955,-0.08578661829,0.1185779348,0.4176176488,13.63986206,14.47781372,-28.80154419,11.925095516026431,0,46.70700053770665,0.0,0.019900999999999947,359.99284164855925,0.0
179,3.56130775,-0.5646258545,0.6364764404,12.0063826,-0.02734136023,0.106062457,0.4313950539,-16.49905396,25.70727539,-5.325286865,12.036491505099685,0,122.69254430177656,0.0,0.019900999999999947,359.99284164855925,0.0
180,3.58120875,-1.203497314,-0.7719447327,11.9559375,0.1297448128,-0.01344184764,0.3843972385,-18.25128174,26.43264771,-8.942779541,12.041127271109408,0,124.62440144547493,0.0,0.019900999999999947,359.99284164855925,0.0
181,3.60110975,-1.480870514,-0.979712677,11.25180176,0.2451291978,-0.1047279015,0.3091278672,-17.21063232,31.55255127,-13.10308838,11.39104285195382,0,118.610669323836,0.0,0.019900999999999947,359.99284164855925,0.0
182,3.62100975,-1.153201904,-0.2171983337,9.906848602,0.2271048725,-0.2112225294,0.2929832935,-16.34130859,28.89698792,-8.975372314,9.976106403326934,0,119.4882523473979,0.0,0.019899999999999807,359.99284164855925,0.0
183,3.64091075,-0.8722361755,-0.2457888794,9.29043045,0.1803675145,-0.2707714736,0.3186217844,-18.05865479,24.414505,-6.191131592,9.334522273012947,0,126.48918826044633,0.0,0.01990100000000039,359.99284164855925,0.0
184,3.66081175,-0.5287005615,-0.5248086548,9.384734344,0.2114508599,-0.1500312984,0.3634172976,1.459259033,-25.98002625,-24.35891724,9.414254464127072,0,273.21483984086467,0.0,0.019900999999999947,359.99284164855925,0.0
185,3.68071275,-0.5556445312,-0.7343728638,9.511969757,0.2153840363,-0.02165758051,0.3952198625,3.339233398,-22.56246948,-25.66671753,9.556443533355958,0,278.4186328465069,0.0,0.019900999999999947,359.99284164855925,0.0
186,3.70061375,-0.6405180359,-0.609382782,9.567504272,0.202057898,0.09817291796,0.393989861,2.278686523,-26.64486694,-19.75967407,9.60826460522656,0,274.88807907038847,0.0,0.019900999999999947,359.99284164855925,0.0
187,3.720514625,-0.8294252014,-0.2469863892,9.650282135,0.1548936367,0.1877942979,0.3666692674,0.5166320801,-28.45571899,-20.40631104,9.689008913519878,0,271.0401278557136,0.0,0.019900874999999818,359.99284164855925,0.0
188,3.740415625,-0.7764353943,0.100740509,9.646390228,0.06329569221,0.1667075455,0.3307910264,2.541412354,-24.18769836,-25.98373413,9.67811164445468,0,275.99808539724705,0.0,0.019900999999999947,359.99284164855925,0.0
189,3.760316625,-0.8544232178,0.2694396973,9.669442291,0.03175561875,0.156907022,0.3099766672,-10.21282959,22.33164978,-1.258239746,9.71085737741916,0,114.57581947913043,0.0,0.01990100000000039,359.99284164855925,0.0
190,3.780216625,-1.002165985,0.5550457764,9.340127106,0.02542774007,0.1288203746,0.2791737318,-12.36422729,17.92633057,4.673950195,9.410121509928894,0,124.59497591652277,0.0,0.019899999999999807,359.99284164855925,0.0
191,3.800117625,-0.9831555176,0.9571096802,9.03655838,0.01776411943,0.09455649555,0.2211378217,-12.87557983,19.39450073,-0.06024169922,9.140133536599349,0,123.57930381680431,0.0,0.019900999999999947,359.99284164855925,0.0
192,3.820018625,-0.8545729065,1.042132874,9.091045074,0.02077832632,0.03490177169,0.163592279,-10.04208374,23.27168274,-4.367218018,9.190399138073111,0,113.34092965809273,0.0,0.019900999999999947,359.99284164855925,0.0
193,3.839919625,-0.6646179199,1.123713226,9.319320374,0.06102896854,0.04063802585,0.1484287381,-10.79302979,20.88188171,1.418365479,9.410323088342452,0,117.33267803320787,0.0,0.019900999999999947,359.99284164855925,0.0
194,3.859820625,-0.3885919189,1.06473587,9.396559753,0.0897250697,0.02703671157,0.1542512327,-13.41372681,18.06434631,3.681274414,9.464671222181911,0,126.59582802270161,0.0,0.019900999999999947,359.99284164855925,0.0
195,3.879721625,-0.09056167603,1.000070343,9.248966675,0.1056885943,0.02176320553,0.1538266391,-12.08364868,20.7505188,-2.778015137,9.303318045911045,0,120.21352482994958,0.0,0.01990100000000039,359.99284164855925,0.0
196,3.899622625,-0.06750961304,0.7051835632,9.134604492,0.1212138087,0.00839295052,0.1290038079,-13.77490234,38.36573792,-4.846374512,9.162032560023285,0,109.75025785438942,0.0,0.019900999999999947,359.99284164855925,0.0
197,3.919523625,-0.2028282166,0.7665559387,9.065747681,0.1079710275,-0.00285869441,0.07545152307,-16.58428955,34.45423889,1.200866699,9.100358691181476,0,115.70348908243378,0.0,0.019900999999999947,359.99284164855925,0.0
198,3.939423625,-0.3905378723,0.7569758606,8.927584991,0.0612860769,-0.03978676349,0.01198907942,-18.58752441,34.47695923,-0.1818237305,8.968127232302193,0,118.33038905765761,0.0,0.019899999999999807,359.99284164855925,0.0
199,3.959324625,-0.5159770203,0.523611145,9.157656555,0.07175268233,-0.03478304297,-0.04089647159,-14.81954956,37.64237976,-5.993041992,9.187114590336858,0,111.48922322418198,206.408977773551,0.019900999999999947,359.99284164855925,4.128179555471023
200,3.979225625,-0.5071453857,0.4803511047,9.357041931,0.1036939397,-0.006133096293,-0.07388743013,-14.10494995,36.38378906,-2.436004639,9.383078776420644,0,111.18988125945275,205.79621848511863,0.01990100000000039,359.99284164855925,8.161540334063979
201,3.999126625,-0.3917353821,0.7149133301,9.463320923,0.08049546182,0.01291762386,-0.1041952223,-18.19665527,32.9634552,2.604095459,9.498368310969694,0,118.89980067172804,205.20804699127538,0.019900999999999947,359.99284164855925,12.10247046720821
202,4.019027625,-0.3873944092,0.880019989,9.40045166,0.02882811241,-0.01039717626,-0.1289944798,-17.12658691,35.78514099,-3.142944336,9.44949739516953,0,115.57554018888432,204.6073415859685,0.019900999999999502,359.99284164855925,15.95256788958342
203,4.038928625,-0.3734733582,1.006956024,9.453591156,0.03953524679,-0.01814886555,-0.1486551762,-13.4730835,37.49960327,-5.810150146,9.51440111243774,0,109.76265388367167,203.9957003600756,0.019900999999999947,359.99284164855925,19.71343053899327
204,4.058829625,-0.4074526978,1.275796967,9.204509125,0.07632425427,-0.02259906381,-0.155986324,-15.0539856,34.52427673,0.4858703613,9.301433429002174,0,113.55915526579624,203.37416438308412,0.019901000000000835,359.99284164855925,23.38664521587509
205,4.078730625,-0.2151026917,1.861079865,8.953331451,0.08067303896,-0.0126401633,-0.1616189778,-18.79205322,33.87545776,0.6865234375,9.14724174291632,0,119.01886101240953,202.76906091872607,0.019900999999999947,359.99284164855925,26.974293529932115
206,4.098630625,-0.1701960754,2.007625122,8.878487091,0.02462852187,0.008303743787,-0.1188465357,-15.77304077,37.03839111,-5.361236572,9.104232991286016,0,113.06704669667607,202.16336147380284,0.019899999999999807,359.99284164855925,30.478074888809534
207,4.118531625,0.1953437805,2.224973145,9.220974884,-0.03322498128,0.01997039095,-0.1345069706,-12.74658203,35.68939209,-3.269927979,9.487625756737565,0,109.6543516707908,201.54700699306213,0.019900999999999947,359.99284164855925,33.89945353089459
208,4.138432625,0.2636018372,1.917961578,9.660161591,-0.06796667725,0.01433237549,-0.1589268595,-16.94552612,32.96253967,1.850708008,9.85224768809083,0,117.20698718274117,200.94037613567664,0.019900999999999947,359.99284164855925,37.24027198299024
209,4.158333625,0.2110610962,1.355131989,9.891580353,-0.04529958963,0.03498180583,-0.1670728177,-18.36547852,35.69766235,-1.342285156,9.98620505366257,0,117.22459083849985,200.33500349738316,0.019900999999999947,359.99284164855925,40.5021666132781
210,4.178234625,0.04939727783,1.357976074,9.477990417,-0.06103727967,0.004897688515,-0.1661071777,-13.46456909,37.41233826,-5.665618896,9.574906863952114,0,109.79362574842328,199.71893473291937,0.019900999999999947,359.99284164855925,43.68650197567093
211,4.198135625,-0.1821711731,1.732646942,9.030421143,-0.1057692841,0.02009037137,-0.1574191898,-13.51504517,33.78388977,-0.9129333496,9.196942849766549,0,111.80358679249657,199.10565257639092,0.019900999999999947,359.99284164855925,46.794884987685336
212,4.218036625,-0.340841217,1.930385742,8.900341644,-0.1685466766,0.01521875151,-0.1271898597,-18.48757935,33.34211731,1.076965332,9.11365147611228,0,119.00754734476625,198.50562030867673,0.019900999999999947,359.99284164855925,49.82909969410517
213,4.237937625,-0.3480262756,1.870210876,9.165140991,-0.169500187,0.02653246187,-0.07831754535,-16.27627563,37.15359497,-3.964996338,9.360481846257978,0,113.65730169342837,197.89347047319566,0.019900999999999947,359.99284164855925,52.79038710968698
214,4.257838625,-0.3077600098,1.787133636,9.531429291,-0.1237456053,0.04667437449,-0.04516328499,-15.18258667,21.93835449,-6.926727295,9.702407288188198,0,124.6854335436041,197.35347490602612,0.019900999999999947,359.99284164855925,55.68164886561377
215,4.277738625,-0.315693512,1.904339905,9.472451935,-0.08641943336,0.0265113432,-0.04142028838,-17.66452026,18.67008972,-1.618225098,9.667136004431692,0,133.41472955406698,196.83636904876545,0.019899999999999807,359.99284164855925,58.5047432692768
216,4.297639625,-0.2595602417,1.980381775,9.553583221,-0.04238704965,0.02746655606,-0.04448563233,-21.48947144,21.30276489,-3.182189941,9.76013503259029,0,135.24998528610286,196.54498634818447,0.019901000000000835,359.99284164855925,61.26554813085496
217,4.317540625,-0.3254232788,2.213147736,9.494007111,-0.02889941819,0.03595374525,-0.0428859964,-17.7298584,24.11924744,-7.385131836,9.753978379895326,0,126.31929716585378,196.23540638575446,0.019900999999999947,359.99284164855925,63.96494529595295
218,4.337441625,-0.3276686096,2.589315491,9.306746521,-0.07225274295,0.02221351489,-0.04119284078,-15.34066772,20.30773926,-4.557769775,9.665787719363353,0,127.06776108094373,195.95584119525796,0.019900999999999947,359.99284164855925,66.60476321393905
219,4.357342625,-0.2055226135,2.733615417,9.423952789,-0.1386525035,0.01518986002,-0.03855423629,-19.85427856,19.04806519,-1.420898438,9.814569728827689,0,136.18722955276132,195.69135603427662,0.019900999999999947,359.99284164855925,69.18649507034581
220,4.377243625,-0.04535568237,2.591261444,9.755213928,-0.174463436,0.0420268476,-0.03194048256,-20.93606567,23.05506897,-5.449127197,10.093606480843674,0,132.2422585303605,195.38956033443566,0.019900999999999947,359.99284164855925,71.7105563756276
221,4.397144625,-0.06032455444,2.377056885,9.961934052,-0.1767316014,0.03659646213,-0.02747831121,-16.01480103,23.55909729,-7.273254395,10.24178541772827,0,124.20674559937939,195.07875328328416,0.019900999999999947,359.99284164855925,74.17792031378073
222,4.417045625,-0.08427474976,2.166744232,10.00160156,-0.1460812688,0.03979088366,-0.03151056916,-16.59384155,19.45075989,-3.006469727,10.23395898786715,0,130.46817376527974,194.81007052235782,0.019900999999999947,359.99284164855925,76.59056331795227
223,4.436945625,-0.2779719543,2.019749908,9.564510498,-0.1364924759,0.009195038117,-0.03163486719,-20.89047241,20.94181824,-2.876739502,9.779392576463817,0,134.92967399510044,194.52650663910492,0.019899999999999807,359.99284164855925,78.94928218437533
224,4.456846625,0.00209564209,2.454745331,9.147477722,-0.1586028337,-0.03229710832,-0.05505753681,-18.94256592,25.22602844,-6.747772217,9.47112072071032,0,126.90338125538544,194.2061130935034,0.019900999999999947,359.99284164855925,81.25441880255791
225,4.476747625,0.1965412903,2.655627594,8.92189682,-0.1501039863,-0.05151955038,-0.07415686548,-14.93222046,22.32133484,-5.656951904,9.31081249212619,0,123.7811881363689,193.9030672028826,0.019900999999999947,359.99284164855925,83.50739177056441
226,4.496648625,0.242795105,2.637964325,8.908275146,-0.1141095012,-0.06850191206,-0.07548134774,-17.61190796,18.76524353,-1.459503174,9.293824364588884,0,133.18404879279524,193.63356207017998,0.019900999999999947,359.99284164855925,85.70991517655673
227,4.516549625,0.2600093079,2.554138641,9.089548187,-0.05548074841,-0.03805874288,-0.0654739216,-20.1864624,23.67280579,-5.085510254,9.445163592095108,0,130.45515367298523,193.32026921598256,0.019900999999999947,359.99284164855925,87.86212225734525
228,4.536450625,0.2113604736,2.592159576,9.099876709,-0.02291748114,-0.00339849852,-0.06704652309,-17.05789185,25.78366089,-6.958587646,9.46423375853796,0,123.48772763066391,192.9954969047051,0.019900999999999947,359.99284164855925,89.96478975029245
229,4.556351625,0.1383123779,2.798430634,9.226363678,-0.0443565622,0.01041840389,-0.08249668777,-16.70263672,40.58586121,10.37026978,9.642413133957064,0,112.36904311250083,192.63870342891917,0.019900999999999947,359.99284164855925,92.01826802386499
230,4.576252625,-0.05763015747,2.76490036,9.651180267,-0.05040387064,0.002479408169,-0.0829616636,-20.4699707,39.90461731,10.65301514,10.039585438747377,0,117.15657554179376,192.2792916039421,0.019901000000000835,359.99284164855925,94.02348849546652
231,4.596152625,-0.2558180237,2.807711334,9.860145721,-0.03417349979,-0.04049061239,-0.08223310858,-21.27511597,44.99182129,6.899688721,10.255299090503234,0,115.30788889685782,191.8955035222656,0.019899999999999807,359.99284164855925,95.98092879600252
232,4.616053625,-0.419128418,2.93344986,9.780960388,-0.002376362216,-0.07859445363,-0.09061516076,-17.00128174,44.32330322,7.675872803,10.219979590172102,0,110.9855319309455,191.51723577356265,0.019900999999999947,359.99284164855925,97.89165493555372
233,4.635954625,-0.3712280273,2.965782623,9.691147156,0.03039261326,-0.11726515,-0.1122914925,-18.11026001,39.26985168,11.05377197,10.141598001024724,0,114.75795377316764,191.1651529399264,0.019900999999999947,359.99284164855925,99.75712489564117
234,4.655855625,-0.1663041687,2.649789734,9.702972565,0.09539615363,-0.1449645311,-0.1347156316,-21.41323853,41.88352966,8.930938721,10.059658011487342,0,117.07869736439231,190.7960217149835,0.019900999999999947,359.99284164855925,101.57790283202802
235,4.675756625,0.06017486572,2.502645721,9.662706299,0.1601738185,-0.1680846661,-0.1582610011,-19.86425781,45.90232849,6.246612549,9.9817207754995,0,113.40057455543624,190.4115255590187,0.019900999999999947,359.99284164855925,103.35457528656784
236,4.695657625,0.1758842468,2.422412567,9.472302246,0.1696613878,-0.1684739888,-0.1650799513,-17.65982056,41.75393677,9.818481445,9.77872833003395,0,112.92592390956982,190.06007557972578,0.019900999999999947,359.99284164855925,105.088685292431
237,4.715558792,0.2213896179,2.286046143,9.600435791,0.1405094266,-0.1300929785,-0.1621123403,-19.73348999,38.07948303,11.9543457,9.871341737978325,0,117.39402329223458,189.72005353795583,0.01990116700000044,359.99284164855925,106.7813126573415
238,4.735459792,0.4212240601,2.724783783,9.839488678,0.1025775447,-0.08646175265,-0.2051160187,-20.82965088,43.79890442,7.820922852,10.218483929497424,0,115.43457837636632,189.3437294409176,0.019900999999999947,359.99284164855925,108.43256099301301
239,4.755360792,0.05583389282,1.879641266,10.45994843,0.1478637308,-0.03718982637,-0.2196473628,-18.6078186,45.01631165,7.734191895,10.627638019367096,0,112.45810915727326,188.97239006833536,0.019900999999999947,359.99284164855925,110.04335757451946
240,4.775260792,-0.232616272,2.14833252,10.52072205,0.1852810979,-0.06968657672,-0.2554932833,-21.79806519,37.86930847,6.981964111,10.740346148976991,0,119.92528898496636,188.65587678077947,0.019899999999999807,359.99284164855925,111.61560795864467
241,4.795161792,-0.1556762695,2.635718994,10.323582,0.1316593438,-0.1242153868,-0.2988994122,-24.80908203,37.9821167,5.344604492,10.65587138750003,0,123.15168489070346,188.33303987791587,0.019900999999999947,359.99284164855925,113.1499565970301
242,4.815062792,-0.09056167603,2.878514099,10.61891785,-0.03063905798,-0.1736980528,-0.3369003832,-24.45025635,43.14793396,1.483886719,11.002520672116722,0,119.53854146879165,187.98108418733344,0.019900999999999947,359.99284164855925,114.64657914883617
243,4.834963792,0.08592132568,1.962718506,11.17231705,-0.1545721292,-0.171751678,-0.3574317694,-22.33410645,41.53924561,4.779968262,11.343734599933224,0,118.26526537518612,187.6441956358732,0.019900999999999947,359.99284164855925,116.10653147857691
244,4.854864792,0.04236190796,0.4480183411,11.98183365,-0.1186777726,-0.1523711383,-0.3383914232,-23.91625977,36.5920105,7.53994751,11.990281588915265,0,123.16832541302306,187.33258280064533,0.019900999999999947,359.99284164855925,117.53105250501828
245,4.874765792,-0.01601669312,-0.6385720825,11.76179123,0.03387553245,-0.151428625,-0.3208941817,-25.48687744,39.72276306,3.456939697,11.77912406663211,0,122.68499981470521,186.995313258331,0.019900999999999947,359.99284164855925,118.92033772008453
246,4.894666792,-0.1535806274,-0.8876541138,10.50320847,0.1757906973,-0.1020817608,-0.3305363357,-2.955749512,48.30792236,0.3966369629,10.541769538324123,0,93.50131209121746,186.51939041889986,0.019900999999999947,359.99284164855925,120.27231877406084
247,4.914567792,-0.3447331238,-0.2885998535,8.72296051,0.138578251,-0.05268129334,-0.353926152,-2.224578857,43.11618042,5.995849609,8.734538960992994,0,92.95355614388747,186.05947648337133,0.019900999999999947,359.99284164855925,121.58806192824704
248,4.934468792,-0.3835025024,-0.1713935852,7.815397797,0.04433999956,-0.05553279817,-0.3455678523,-3.957214355,40.13134766,5.634460449,7.826678264484061,0,95.63153482963158,185.60014116936446,0.019900999999999947,359.99284164855925,122.86830351306939
249,4.954368792,-0.1240919495,-0.470022583,8.777896271,0.09224255383,0.02885858156,-0.302919507,-3.307952881,45.25209045,0.8303222656,8.791347051783156,0,94.18091663056003,185.11656473571205,0.019900000000000695,359.99284164855925,124.11326873752225
250,4.974269792,0.2775228882,-0.2535726929,9.765093384,0.1516926736,0.2288707048,-0.2485926002,-2.063293457,46.08575439,2.180053711,9.772326583894952,0,92.56346277169166,184.64429986188736,0.019900999999999947,359.99284164855925,125.32388936000956
251,4.994170792,0.1889071655,-0.1516346741,10.4894371,0.09292469919,0.2778900564,-0.2100677639,-2.558319092,40.7727356,7.206848145,10.492233778677592,0,93.59036431352234,184.18669400805248,0.019900999999999947,359.99284164855925,126.50114545297042
252,5.014071792,0.2574645996,-0.1161584473,11.22949814,0.0601939708,0.1954010278,-0.2107752264,-14.92663574,25.40074158,-13.73193359,11.233049865516923,0,120.44043993993212,183.84493686297046,0.019900999999999947,359.99284164855925,127.64802128117041
253,5.033972792,0.100740509,0.08128097534,11.0149942,0.1038262397,0.1093996838,-0.2222107351,-13.23788452,30.2000885,-17.67385864,11.015754739151532,0,113.66972616359399,183.46933903796148,0.019900999999999947,359.99284164855925,128.76444763630624
254,5.053873792,-0.2279759216,0.7033872986,9.986333313,0.09138432145,0.007356595248,-0.2420227677,-12.88253784,27.23544312,-12.81686401,10.013669644590577,0,115.31444706256778,183.1205687712138,0.019900999999999947,359.99284164855925,129.8515700590044
255,5.073774792,-0.2832110596,1.389261017,9.113498383,0.0277656652,-0.01259802096,-0.2881979048,-14.74920654,23.26309204,-10.77301025,9.223128940580809,0,122.37541093302491,182.7995445484281,0.019900999999999947,359.99284164855925,130.91052954879285
256,5.093675792,-0.3561094666,1.138831787,8.551417236,-0.05110998079,-0.08081977069,-0.2933808863,-14.04837036,26.24736023,-16.89105225,8.634262477794016,0,118.15701852101414,182.2560125226665,0.019900999999999947,359.99284164855925,131.93743920827035
257,5.113575792,-0.1679507446,0.9692344666,8.749605103,-0.04047602788,-0.08364588022,-0.2779674232,-12.1885376,29.42332458,-17.64743042,8.804726705713286,0,112.50165795652046,181.6990384980226,0.019899999999999807,359.99284164855925,132.9326711940654
258,5.133476792,-0.1442999268,0.7695497131,9.35015625,0.02349901758,-0.01120563783,-0.2528754175,-13.84005737,25.13601685,-11.38626099,9.382880747895117,0,118.83747172527393,181.16571311015093,0.019900999999999947,359.99284164855925,133.8973320323871
259,5.153377792,-0.1354682922,0.7455995178,9.38054306,0.0757972151,-0.009891690686,-0.2164697349,-17.24551392,23.59887695,-13.31658936,9.41110293215675,0,126.15847153472997,180.65335167531794,0.019900999999999947,359.99284164855925,134.83245242524572
260,5.173278792,-0.1281335449,0.9080117798,9.440867615,0.1125544906,0.002215068787,-0.1711924672,-14.92785645,27.99916077,-19.13183594,9.485298357012288,0,118.06447381472965,180.1163036184329,0.019900999999999947,359.99284164855925,135.73812944910946
261,5.193179792,-0.139360199,1.091081085,9.223519592,0.07377015799,-0.007804665249,-0.1405130327,-13.61230469,27.63583374,-16.49234009,9.288874682280838,0,116.22301021129717,179.57823464275003,0.019900999999999947,359.99284164855925,136.61493155298228
262,5.213080792,-0.0252973938,0.9601034546,9.060358887,-0.009480196983,-0.07145496458,-0.1163099036,-15.98428345,23.28787231,-10.85617065,9.111121871806336,0,124.46484750186771,179.05834888977333,0.019901000000000835,359.99284164855925,137.4637998997181
263,5.232981792,0.05822891235,0.8647517395,8.957971802,-0.0688174367,-0.1075352952,-0.09585919231,-16.25357056,25.18261719,-16.45394897,8.999802496867854,0,122.83933753636845,178.55859641696514,0.019900999999999947,359.99284164855925,138.28569583006305
264,5.252882792,0.04999603271,0.6831793213,9.101523285,-0.0845579505,-0.07896666229,-0.06920004636,-13.74688721,28.51704407,-19.82305908,9.127264633817507,0,115.73679262350267,178.0431729886191,0.019900999999999947,359.99284164855925,139.08084537323415
265,5.272783792,0.09340576172,0.5691165161,9.407636719,-0.09791859984,-0.01733446307,-0.0544135794,-14.43103027,26.16497803,-14.1696167,9.42529823835285,0,118.87848999842363,177.54759984610817,0.019900999999999947,359.99284164855925,139.85018046269164
266,5.292683792,-0.003293151855,0.767454071,9.290580139,-0.1456496567,0.004428455606,-0.05828244612,-17.50338745,23.74316406,-11.99105835,9.322224837190149,0,126.39752541504077,177.06262921312165,0.019899999999999807,359.99284164855925,140.59442943770023
267,5.312584792,-0.1686991882,1.028660889,9.205856323,-0.1901747733,-0.003284690669,-0.07393801212,-15.70599365,26.55004883,-18.30905151,9.264685276919918,0,120.60693611159414,176.55573923460258,0.019900999999999947,359.99284164855925,141.31365563363826
268,5.332485792,-0.2716850281,1.349593506,9.101822662,-0.2399229258,-0.01679959893,-0.07981875539,-13.00457764,28.14544678,-18.66503906,9.20534579233327,0,114.79925422343817,176.04205594139287,0.019900999999999947,359.99284164855925,142.00822363979336
269,5.352386792,-0.1722917175,1.57023468,9.361233215,-0.2785173059,-0.03800812364,-0.09857329726,-16.1234436,25.06906128,-12.93621826,9.4935772336782,0,122.74754511192978,175.55961438889236,0.019900999999999947,359.99284164855925,142.67925145477534
270,5.372287792,-0.1767823792,1.811083832,9.528285828,-0.3076874614,-0.04344857484,-0.0817412883,-17.89694214,25.20555115,-13.99850464,9.700490063712918,0,125.37626435674045,175.06764318189352,0.019900999999999947,359.99284164855925,143.3270192893177
271,5.392188792,-0.3367996216,1.495689697,9.751621399,-0.306176424,-0.02639457211,-0.03608369827,-5.080688477,-20.75488281,-39.71014404,9.871405247696831,0,256.2447883367006,175.22951188903752,0.019900999999999947,359.99284164855925,143.96506914131209
272,5.412089792,-0.1868115234,1.48715744,9.860594788,-0.2635682821,0.001655023661,-0.01816884242,-4.096252441,-21.64167786,-36.54092407,9.973859101158144,0,259.28206935652895,175.45099902309718,0.019900999999999947,359.99284164855925,144.5947877389478
273,5.431990792,-0.09550140381,1.125210114,10.03109024,-0.1940110624,0.005871888716,-0.03068437614,-7.888183594,-24.68711853,-31.3102417,10.094453413721856,0,252.2799517892921,175.56226105936236,0.019900999999999947,359.99284164855925,145.21413720535605
274,5.451891792,-0.09894424438,0.9114546204,9.921967163,-0.1264855415,-0.01385965478,-0.06533138454,-7.771057129,-21.74987793,-36.53793335,9.964234635545004,0,250.33859830056622,175.64567583168784,0.019900999999999947,359.99284164855925,145.8227679778827
275,5.471791792,-0.1408570862,0.8539741516,9.551188202,-0.1090537682,-0.05192814767,-0.09460107237,-3.452911377,-20.09567261,-40.17944336,9.590323698413815,0,260.2504340199007,175.85758955014313,0.019900000000000695,359.99284164855925,146.42346440932792
276,5.491692792,0.04326004028,1.207089844,9.327852631,-0.1201962009,-0.05138023198,-0.106079258,-4.713378906,-22.60739136,-33.99362183,9.405730807769624,0,258.22319611540263,176.08193061132607,0.019900999999999947,359.99284164855925,147.01663373336788
277,5.511593792,0.2468367004,1.188378754,9.496551819,-0.100430131,0.01374731585,-0.09018816054,-8.995910645,-23.4316864,-32.5012207,9.573801171456152,0,248.99716779385307,176.1558212428408,0.019900999999999947,359.99284164855925,147.59941748355735
278,5.531494792,0.2821632385,1.156195679,9.828112335,-0.06852012873,0.05046706274,-0.07767724991,-6.621520996,-20.53646851,-39.13949585,9.89990891931225,0,252.12925436564126,176.2714446320896,0.019900999999999947,359.99284164855925,148.172858026528
279,5.551395792,0.1953437805,1.210832062,9.949360199,-0.04322633147,0.0568683967,-0.08889166266,-2.885955811,-20.61924744,-38.34545898,10.024671657684978,0,262.03240317694883,176.51574499220862,0.019900999999999947,359.99284164855925,148.7397157658416
280,5.571296792,0.1191522217,1.331032104,10.01103195,-0.03798586503,0.05139956623,-0.1110245883,-6.669128418,-23.64596558,-32.82696533,10.09983190046921,0,254.24937958560417,176.69375076089705,0.019900999999999947,359.99284164855925,149.2987964657427
281,5.591197792,0.1110690308,1.481020203,9.862840118,-0.06690177321,0.01426317263,-0.1253856868,-9.003692627,-21.7585907,-34.84854126,9.974034908928646,0,247.5202556669982,176.76123376853732,0.019900999999999947,359.99284164855925,149.8480452117986
282,5.611098792,0.2263293457,1.775158539,9.768985291,-0.1044686064,-0.01391711645,-0.1288003176,-5.054016113,-19.27540588,-40.17193604,9.931539982655456,0,255.3077649118734,176.92154910308247,0.019900999999999947,359.99284164855925,150.38951528962426
283,5.630999792,0.1761836243,1.889969788,9.532926178,-0.1278026402,-0.02426815964,-0.1109987199,-5.866821289,-10.18083191,-25.9800415,9.720067282906118,0,240.0468092220538,176.81738534572443,0.019900999999999947,359.99284164855925,150.91807269074624
284,5.650899792,0.01272354126,1.998194733,9.499395905,-0.108040005,0.0005203869659,-0.1021593213,-10.19281006,-11.52890015,-22.12615967,9.707289355913003,0,228.5197964654409,176.63090391166116,0.019899999999999807,359.99284164855925,151.43232931516454
285,5.670800792,-0.2100132751,1.967957611,9.375603333,-0.08671794087,0.007514380384,-0.0875878334,-10.03701782,-7.775482178,-27.40158081,9.582217937000378,0,217.76424644768142,176.39327557262473,0.019900999999999947,359.99284164855925,151.93154824031373
286,5.690701792,-0.3614982605,1.760638733,9.143885193,-0.05745495483,0.007554118522,-0.03051283956,-5.617279053,-7.824035645,-29.7461853,9.318860776041726,0,234.32348212234035,176.26209899148995,0.019900999999999947,359.99284164855925,152.41815925533726
287,5.710602792,-0.1020877075,1.919159088,9.160201263,-0.02766430378,0.02986608073,-0.005959827453,-6.362060547,-11.08862305,-24.21118164,9.359641055283175,0,240.1550949119541,176.15166151477686,0.019901000000000835,359.99284164855925,152.89282930052605
288,5.730503792,0.1240919495,2.077080688,9.062005463,-0.04002946615,0.006559235044,0.02040731162,-11.35385132,-9.842056274,-24.0838623,9.297828026363744,0,220.920295584556,175.92739333975427,0.019900999999999947,359.99284164855925,153.3535205813106
289,5.750404792,0.2935395813,1.991758118,9.217532043,-0.02288606577,0.00941230543,0.04429419339,-8.752349854,-6.420822144,-29.73504639,9.434837722512269,0,216.26419047560591,175.69291738975684,0.019900999999999947,359.99284164855925,153.80030851747952
290,5.770305792,0.3125500488,1.9083815,9.255852356,0.007681908552,0.001158939907,0.0627944991,-4.946716309,-8.645629883,-28.02749634,9.455707816901803,0,240.22337330925225,175.59272137994287,0.019900999999999947,359.99284164855925,154.23615677472878
291,5.790206792,0.2685415649,2.005679169,9.221723328,0.0353442058,0.01361886784,0.07398089021,-8.43359375,-11.51811218,-23.56259155,9.441135770616736,0,233.78830808378535,175.44096972829826,0.019900999999999947,359.99284164855925,154.66025303380016
292,5.810107792,0.2020797729,2.156266022,9.233548737,0.06110699847,0.04134989157,0.08707537502,-10.9855957,-8.175842285,-25.86486816,9.484131044581854,0,216.65783787631253,175.19978767170358,0.019900999999999947,359.99284164855925,155.07104372655823
293,5.830008792,0.09160949707,2.35774704,9.204209747,0.08353447914,0.04498755187,0.1070305556,-7.363220215,-6.180419922,-30.25234985,9.501833532079583,0,220.00887823432163,175.06133693860326,0.019900999999999947,359.99284164855925,155.47084959079913
294,5.849908792,0.02020797729,2.423460388,9.446406097,0.115925245,0.05487784743,0.1368930936,-5.189788818,-10.41394043,-25.86654663,9.7523410914503,0,243.51062208451862,175.0566144419059,0.019899999999999807,359.99284164855925,155.86256488782126
295,5.869809792,-0.04939727783,2.578986969,9.51391571,0.1452046633,0.07138247788,0.1631928831,-9.417297363,-11.24327087,-23.4694519,9.8573934695899,0,230.05065727556715,174.9442004953404,0.019900999999999947,359.99284164855925,156.24419759997164
296,5.889710792,-0.03353027344,2.80935791,9.732161865,0.1706378013,0.08743070811,0.156569466,-9.771240234,-6.639862061,-27.90478516,10.129589859035596,0,214.19732871281224,174.74919900094665,0.019900999999999947,359.99284164855925,156.61429762799114
297,5.909611792,-0.1881587219,2.379751282,9.914033661,0.1724060923,0.06383939832,0.2152336985,-5.501739502,-7.842575073,-29.02807617,10.197386101361896,0,234.9494926462997,174.68858469215738,0.019900999999999947,359.99284164855925,156.97578336927447
298,5.929512792,-0.08592132568,2.477198639,10.17673737,0.1641910523,0.05617427453,0.242334038,-5.552154541,-11.62101746,-24.29550171,10.474248377292977,0,244.463004574955,174.67811327275416,0.019900999999999947,359.99284164855925,157.32982996734407
299,5.949413792,0.1320254517,2.275567932,10.41474243,0.1465958208,0.06124120578,0.2507048845,-10.0112915,-9.677001953,-25.58145142,10.66126165218196,0,224.02726257270413,174.53073102221686,0.019900999999999947,359.99284164855925,157.67384798844154
300,5.969314792,0.1905537415,2.121238861,10.70424042,0.1538665444,0.05988696963,0.2445043772,-8.578887939,-5.864105225,-29.50756836,10.914061022505692,0,214.35458810746005,174.34971424777387,0.019900999999999947,359.99284164855925,158.00736531362818
301,5.989215792,0.2772235107,2.674338684,10.67714676,0.182253018,0.07500600815,0.2123367786,-8.101715088,-5.697937012,-24.67660522,11.010467892247004,0,215.11872399787117,174.19260268315492,0.019901000000000835,359.99284164855925,158.33107006101872
302,6.009116792,0.07679031372,2.758463745,10.53284683,0.116554901,0.08225190639,0.2105561346,-10.20782471,-9.096984863,-21.25933838,10.888336940460729,0,221.70671044770782,174.04489941838122,0.019900999999999947,359.99284164855925,158.64534664816597
303,6.029017792,0.1534309387,2.923869781,10.43734543,-0.04840597883,0.07345647365,0.2415913045,-13.03546143,-5.035446167,-24.79898071,10.840236859697177,0,201.12096298748818,173.7893991218975,0.019900999999999947,359.99284164855925,158.94822769764062
304,6.048917792,-0.3007246399,1.545086975,11.2274025,-0.1163589209,0.09120323509,0.3140670955,-10.6651001,-2.301437378,-27.74295044,11.337208473269063,0,192.1772161292686,173.50537680401445,0.019899999999999807,359.99284164855925,159.2393706797681
305,6.068818792,-0.4953199768,0.1185534668,11.65895508,-0.02450239286,0.140970096,0.2873932421,-8.710845947,-6.840011597,-23.19213867,11.670074136926692,0,218.1400420764967,173.3585966710918,0.019900999999999947,359.99284164855925,159.52175519959457
306,6.088719792,-0.7060816956,-0.703686676,11.51360733,0.0720480606,0.1042009369,0.1480080485,-11.49157715,-8.016952515,-22.1484375,11.556681186580818,0,214.9010639861247,173.17432407424894,0.019900999999999947,359.99284164855925,159.79480657708766
307,6.108620792,-0.5312452698,-0.7134164429,10.62610291,0.101476185,0.02449071594,0.0162104629,-12.2835083,-2.966323853,-26.90127563,10.66326627312642,0,193.57633647025241,172.88609663887874,0.019900999999999947,359.99284164855925,160.05663237832348
308,6.128521792,-0.2639012146,-0.5891748047,9.752968597,0.1161869168,-0.0347933583,-0.03991127014,-8.796691895,-3.568283081,-26.92190552,9.774311600088714,0,202.07940334556815,172.83361937344375,0.019900999999999947,359.99284164855925,160.31217211822587
309,6.148422792,-0.135617981,-0.5174739075,9.028924255,0.1360651851,-0.08417664468,-0.02457271703,-10.08660889,-2.797195435,-28.41522217,9.044757856584171,0,195.49963722320337,172.76063543036932,0.019900999999999947,359.99284164855925,160.56114138446873
310,6.168323792,-0.04879852295,-0.3891906738,8.7814888,0.1799384207,-0.08017546684,0.01965738647,-8.412567139,-7.625411987,-24.02929688,8.790244377771328,0,222.1901381478103,172.786551588916,0.019900999999999947,359.99284164855925,160.80564958855769
311,6.188224792,-0.09056167603,-0.3134481812,9.025182037,0.1766498834,-0.03507113829,0.065377675,-10.72433472,-8.782073975,-23.45181274,9.03107756474555,0,219.31377895722227,172.79907788819077,0.019900999999999947,359.99284164855925,161.04551815455034
312,6.208125792,-0.2841091919,-0.2504292297,9.489516449,0.1620076746,0.04361995682,0.09235621989,-11.71270752,-3.545852661,-28.49316406,9.497070878320946,0,196.84292845131762,172.7255895540972,0.019900999999999947,359.99284164855925,161.27911958254128
313,6.228025792,-0.6960525513,-0.1413061523,9.818831635,0.1361112595,0.1016757563,0.1050681174,-0.8212890625,-22.48483276,-38.06494141,9.844486338013064,0,267.90812379501233,172.9962658326048,0.019900000000000695,359.99284164855925,161.51346250754256
314,6.247926792,-1.109043732,0.09984237671,9.973609772,0.07293707132,0.110302031,0.099325791,-0.828918457,-28.07933044,-33.96981812,10.035578627254608,0,268.3090857477641,172.85977196816654,0.019900999999999947,359.99284164855925,161.74038869675505
315,6.267827792,-1.160836029,0.2487826538,9.892029419,-0.01897415891,0.06395474076,0.06831368059,-2.778656006,-25.91452026,-36.88754272,9.96301556364426,0,263.87990559047097,172.6927324336042,0.019900999999999947,359.99284164855925,161.95943557149204
316,6.287728792,-1.130449219,0.582588501,9.513616333,-0.08772870898,0.02333193272,0.05188731104,-2.168151855,-21.34284973,-40.65826416,9.598240491348374,0,264.19940417389466,172.4800206875333,0.019900999999999947,359.99284164855925,162.16984727381285
317,6.307629792,-0.9918374634,0.819994812,9.109905853,-0.1370940804,0.004016255494,0.04265720397,-0.1233520508,-24.60910034,-35.6769104,9.200354215791602,0,269.71280978913177,172.32607228904814,0.019900999999999947,359.99284164855925,162.37297177411756
318,6.327530792,-0.866098938,0.9051676941,8.900940399,-0.1597966701,0.02172695659,0.02266029082,-1.058410645,-28.40054321,-33.74560547,8.988670419555792,0,267.8657305439299,172.1995926178227,0.019900999999999947,359.99284164855925,162.56950419099167
319,6.347431792,-0.7000941467,0.949176178,8.900042267,-0.1793718934,0.0219906494,-0.005689402111,-1.765777588,-23.69651794,-39.50454712,8.977851613025958,0,265.73840481358025,172.02484264962234,0.019900999999999947,359.99284164855925,162.75861096016428
320,6.367332792,-0.489332428,0.9945318604,9.161548462,-0.1721828133,0.03528531268,-0.02920082584,-0.5253601074,-21.54420471,-40.07382202,9.22835359465694,0,268.6031068205886,173.11947654118035,0.019900999999999947,359.99284164855925,162.96582827178457
321,6.387233792,-0.2483335876,1.09871521,9.368118896,-0.1355816126,0.05625875294,-0.03695688024,-0.1192321777,-25.65916443,-34.07727051,9.43559729603844,0,269.7337617359277,174.30761320673486,0.019900999999999947,359.99284164855925,163.19266397048358
322,6.407134792,-0.09101074219,1.09167984,9.337582397,-0.1144471541,0.04979444668,-0.03315834701,-1.355438232,-26.69120789,-36.54138184,9.401621820144683,0,267.0928915848933,175.33095015034382,0.019900999999999947,359.99284164855925,163.43542969408077
323,6.427034792,-0.1342707825,1.019978943,9.227561188,-0.09649866819,0.0445003584,-0.02795220166,-1.351989746,-21.75682068,-41.63653564,9.284733230711613,0,266.4441574554431,176.40922688281725,0.019899999999999807,359.99284164855925,163.6949056378555
324,6.446935792,-0.3894900513,0.8524772644,9.22381897,-0.07239025086,0.04193910584,-0.03598387167,-0.1237182617,-22.32228088,-37.8649292,9.271313627405366,0,269.68244904263616,177.55944408118458,0.019900999999999947,359.99284164855925,163.97219640672208
325,6.466836792,-0.6381230164,0.7137158203,9.389524384,-0.05680676177,0.03708096594,-0.05593281239,-0.8994140625,-27.02323914,-33.61618042,9.438207425880009,0,268.0937291180693,178.87451102119684,0.019900999999999947,359.99284164855925,164.2702426990116
326,6.486737792,-0.7858657837,0.665665741,9.692494354,-0.0411991924,0.045121409,-0.05900945142,-1.473815918,-24.71014404,-38.30596924,9.747058156749317,0,266.58668475719486,179.95541969127953,0.019900999999999947,359.99284164855925,164.58394623885695
327,6.506638792,-0.8406518555,0.6577322388,9.966873779,-0.02869560756,0.07461536676,-0.04144763201,-0.2754516602,-20.34254456,-41.4588623,10.023865530155032,0,269.22422423144485,179.56633716446854,0.019901000000000835,359.99284164855925,164.8835940573692
328,6.526539792,-0.9120533752,0.6483018494,10.26056305,0.01197104715,0.1111239642,-0.00860881526,-0.2757873535,-23.64851379,-34.97253418,10.321399650734124,0,269.33185081897767,179.40387676628924,0.019900999999999947,359.99284164855925,165.17399971154762
329,6.546440792,-0.9812095642,0.8870553589,9.983788605,0.0568978712,0.09499998391,0.02466321364,-1.475097656,-26.71589661,-34.23388672,10.07103144310247,0,266.8396665965625,179.39263860077287,0.019900999999999947,359.99284164855925,165.4583724893321
330,6.566341792,-0.9101074219,1.231788483,9.748627625,0.0901292339,0.06330282986,0.04418870434,-0.3312988281,-22.94140625,-40.55123901,9.868198364299436,0,269.1726442123587,179.1137356231168,0.019900999999999947,359.99284164855925,165.7314797520078
331,6.586242792,-0.7918533325,1.36905304,9.451495514,0.09672261029,-0.01678998768,0.03552999347,0.8605957031,-21.40380859,-40.08764648,9.58290693775572,0,272.3024853566849,178.78986502727142,0.019900999999999947,359.99284164855925,165.99264745751307
332,6.606142792,-0.5748046875,1.55975647,9.471254425,0.1026777551,-0.03441083059,0.03319560736,-0.1824645996,-25.41133118,-33.26300049,9.616023141484265,0,269.5885980263567,178.68429071567323,0.019899999999999807,359.99284164855925,166.2464803226763
333,6.626043792,-0.3041674805,1.638642426,9.472451935,0.08967147022,-0.03111325763,0.04379717261,-12.55953979,-44.59191895,-54.38058472,9.61795261567482,0,254.2698572330971,178.567293074275,0.019900999999999947,359.99284164855925,166.49289657770825
334,6.645944792,-0.06616241455,1.264720001,9.618847504,0.09863860905,-0.01205018349,0.05596578121,-10.88830566,-40.55970764,-59.77838135,9.70186175181009,0,254.97316262904477,178.1096387279356,0.019900999999999947,359.99284164855925,166.72523142071282
335,6.665845792,-0.1016386414,0.9798623657,9.651629333,0.1204432696,0.02510826476,0.05333373696,-10.84692383,-41.71595764,-54.58435059,9.70177352089642,0,255.42478696545322,177.77364306089814,0.019900999999999947,359.99284164855925,166.94619965351652
336,6.685746792,-0.3754193115,0.8485853577,9.398206329,0.1164007559,0.04212380573,0.0293010883,-12.40914917,-45.09684753,-50.93206787,9.443903799340909,0,254.6148712741168,177.6810287975968,0.019900999999999947,359.99284164855925,167.16089623639814
337,6.705647917,-0.5472619629,0.8009843445,9.215286713,0.1027953327,0.08254703134,0.002340609208,-11.8727417,-43.69818115,-57.17266846,9.266206385515355,0,254.79974523022582,177.43853031158469,0.01990112500000052,359.99284164855925,167.3664489179019
338,6.725548917,-0.6167175293,0.9907896423,8.861721954,0.03428215533,0.06379128993,-0.002134728944,-9.745513916,-41.14422607,-59.60552979,8.93823923467259,0,256.67437590006966,176.98725892819505,0.019900999999999947,359.99284164855925,167.55886511810775
339,6.745449917,-0.8761280823,0.8578660583,8.740174713,-0.05818621814,0.05723669752,0.02148977295,-11.03128052,-43.8109436,-53.00827026,8.825768442710384,0,255.86711941737195,176.73557201884097,0.019900999999999947,359.99284164855925,167.7423992561224
340,6.765350917,-0.6412664795,1.635349274,9.154812469,-0.1005035788,0.08627900481,0.05514147505,-12.79321289,-45.14674377,-52.58270264,9.321812124703037,0,254.17888471293426,176.69577446806355,0.019900999999999947,359.99284164855925,167.92146676036123
341,6.785251917,-0.8734336853,1.690285034,9.418264618,-0.126459077,0.09712822735,0.09925287217,-10.2300415,-42.16455078,-58.8052063,9.608520089662706,0,256.3623117650267,176.23246051484566,0.019900999999999947,359.99284164855925,168.08768663545092
342,6.805151917,-0.928818512,1.866468658,9.843829651,-0.1228629053,0.1429223716,0.1292857826,-8.889984131,-41.55458069,-57.42996216,10.062176269447727,0,257.9244500808401,175.82589610722837,0.019899999999999807,359.99284164855925,168.24245082488648
343,6.825052917,-0.9039701843,2.008972321,9.857451324,-0.1371485144,0.1208667904,0.1385861039,-11.5425415,-44.31236267,-51.09332275,10.1006177279252,0,255.39995690741372,175.63926524493812,0.019900999999999947,359.99284164855925,168.3903871132875
344,6.844953917,-0.8155041504,2.052831116,9.53382431,-0.1795531809,0.02364194021,0.142860353,-11.86358643,-43.57148743,-55.15386963,9.786366464836906,0,254.76880788780338,175.49917671025796,0.019900999999999947,359.99284164855925,168.5325629052269
345,6.864854917,-0.6086343384,1.979034576,9.392218781,-0.1976446211,-0.04169068858,0.1341508776,-8.916259766,-40.48410034,-60.26287842,9.617732957462078,0,257.57940994261594,176.6954085045835,0.019900999999999947,359.99284164855925,168.69581981721404
346,6.884755917,-0.4140390015,1.860181732,9.185947723,-0.1948118061,-0.05585258082,0.1160248742,-9.174530029,-42.08354187,-55.42504883,9.381542513921604,0,257.7015154252646,176.2729913027921,0.019900999999999947,359.99284164855925,168.84736324692562
347,6.904656917,-0.3165916443,1.785337372,9.169032898,-0.1833111793,-0.02264113538,0.08225053549,-12.36083984,-43.97041321,-51.40371704,9.346594250619138,0,254.29841306187376,176.08818469211593,0.019900999999999947,359.99284164855925,168.99217967582945
348,6.924557917,-0.3879931641,1.774110718,9.029223633,-0.1738294661,0.00503324857,0.04793727025,-11.56137085,-41.92166138,-57.52578735,9.210042722476183,0,254.58193527347356,177.13254350747565,0.019900999999999947,359.99284164855925,169.15498695246237
349,6.944458917,-0.5442681885,1.854194183,9.080866241,-0.1528847367,0.03637961298,0.017215278,-8.267333984,-40.36303711,-59.13989258,9.28420139894744,0,258.424530671518,178.38126817269222,0.019901000000000835,359.99284164855925,169.33951257686698
350,6.964359917,-0.6849755859,1.915117493,9.232500916,-0.1312429756,0.06842613965,-0.007541986182,-10.3196106,-42.59898376,-53.04891968,9.453884901415634,0,256.38242610302586,178.0395010119737,0.019900999999999947,359.99284164855925,169.5135123455691
351,6.984260917,-0.7767347717,2.023791504,9.376651154,-0.108987838,0.07137566805,-0.02436519228,-10.94866943,-33.307724,-49.71102905,9.623961545072795,0,251.80365286576426,177.95714617643662,0.019900999999999947,359.99284164855925,169.68238502218642
352,7.004161917,-0.8568182373,2.201472015,9.478439484,-0.07969650626,0.04290254787,-0.03347834572,-8.303497314,-30.99429321,-55.91775513,9.768389405446952,0,255.0024121400882,179.00787901768524,0.019900999999999947,359.99284164855925,169.8688949020964
353,7.024061917,-0.8565188599,2.401605835,9.55373291,-0.05608944967,0.005874839146,-0.03581269085,-5.924987793,-31.77236938,-54.33334351,9.888131656672432,0,259.4366789627251,178.53434490037728,0.019899999999999807,359.99284164855925,170.04220390206203
354,7.043962917,-0.8158035278,2.4923172,9.723629608,-0.01136853546,-0.02184833959,-0.04181141406,-9.229217529,-34.10232544,-48.06036377,10.071055216558044,0,254.85662182176608,178.27166888630197,0.019900999999999947,359.99284164855925,170.20679320174682
355,7.063863917,-0.7253915405,2.464026031,9.784103851,0.05034785718,-0.05368280411,-0.05225344002,-10.16256714,-31.60473633,-52.23803711,10.115646560434364,0,252.17470002409055,179.16301326990947,0.019900999999999947,359.99284164855925,170.38591760311007
356,7.083764917,-0.7512876892,2.097438354,9.719288635,0.08464758098,-0.1098784879,-0.02149831504,-6.620605469,-30.45100403,-55.83258057,9.97137164141493,0,257.73374945073704,180.31284811167967,0.019900999999999947,359.99284164855925,170.58445621328147
357,7.103665917,-0.3035687256,2.622396698,9.753267975,0.07863739133,-0.1962945163,-0.03660397977,-6.67199707,-32.78189087,-50.68652344,10.104224591971631,0,258.49589490765237,179.89197263746453,0.019900999999999947,359.99284164855925,170.77060654176515
358,7.123566917,-0.1324745178,2.604733429,9.812694397,0.07502812892,-0.2579770684,-0.05697963014,-11.00717163,-33.20011902,-47.4699707,10.153381558029404,0,251.65756977937954,179.61446809478755,0.019900999999999947,359.99284164855925,170.9474837728256
359,7.143467917,-0.07379653931,2.37765564,9.997709656,0.1156437322,-0.2319828421,-0.06666252762,-10.72521973,-30.05500793,-52.58322144,10.276813253013485,0,250.36090622329704,180.55388707504463,0.019900999999999947,359.99284164855925,171.13961183887
360,7.163368917,-0.04146377563,2.528990936,10.1378183,0.1845404506,-0.1332699955,-0.09932748973,-6.271881104,-30.43699646,-52.99078369,10.44858240542106,0,258.3565411135988,181.78064595087938,0.019900999999999947,359.99284164855925,171.3524325211102
361,7.183269917,-0.4861889648,2.398462372,9.95160553,0.1874597669,-0.1482593715,-0.1048259065,-8.856567383,-33.64196777,-47.61477661,10.24809514417776,0,255.25099315865856,181.43730752436852,0.019900999999999947,359.99284164855925,171.55413002117538
362,7.203170917,-0.6387217712,2.409539337,10.12778915,0.2170450687,-0.1471109092,-0.1123558134,-12.78683472,-31.93301392,-47.71408081,10.430050737384406,0,248.17751250219223,182.43076738369524,0.019900999999999947,359.99284164855925,171.77166276842578
363,7.223070917,-0.7015910339,2.345921631,10.22329056,0.284807831,-0.1523016691,-0.1323459148,-9.809204102,-29.58058167,-53.025177,10.51243302722199,0,251.6539847895117,183.42247294301873,0.019900000000000695,359.99284164855925,172.00467897191766
364,7.242971917,-0.5667214966,2.698438568,10.05129822,0.3452641368,-0.1672754735,-0.1723697782,-22.771698,-67.89903259,-72.71572876,10.422635936621484,0,251.45978927593887,182.89514227815536,0.019900999999999947,359.99284164855925,172.22248823804242
365,7.262872917,-0.3908372498,2.862946472,10.00609222,0.282166779,-0.1784371436,-0.1956007779,-26.48995972,-70.33551025,-67.8553772,10.41494588428154,0,249.36247987307746,182.55964631786313,0.019900999999999947,359.99284164855925,172.4292313996388
366,7.282773917,-0.2752775574,2.446362762,10.56458084,0.1686611921,-0.1681304723,-0.1980469525,-28.21289062,-66.37138367,-72.36608887,10.847618947114777,0,246.9708137150779,183.50375780371945,0.019900999999999947,359.99284164855925,172.65072192772044
367,7.302674917,-0.2444416809,1.634451141,11.16887421,0.1196407005,-0.1138849258,-0.1828989238,-24.71008301,-65.80282593,-75.13174438,11.290479767772515,0,249.41798683367796,184.57234019758346,0.019900999999999947,359.99284164855925,172.88915429311768
368,7.322575917,-0.143102417,0.7384144592,11.38652161,0.1434283853,-0.07658182085,-0.1822734624,-24.04974365,-69.61769104,-69.94656372,11.411336845010924,0,250.94229855136422,184.100725431521,0.019900999999999947,359.99284164855925,173.11338571588576
369,7.342476917,-0.3930825806,-0.3679348755,11.29625931,0.2348449379,0.0003530345857,-0.1482134014,-28.50375366,-69.01272583,-69.00231934,11.309083269060409,0,247.55831236542525,183.66137639389115,0.019900999999999947,359.99284164855925,173.32434552944588
370,7.362377917,-0.5581892395,-0.4953199768,10.24903702,0.288197428,0.08300882578,-0.1362219304,-21.82290649,-51.73549652,-1.949768066,10.276170344240173,0,247.12916105389843,184.61425152246625,0.019900999999999947,359.99284164855925,173.5501436493063
371,7.382278917,-0.5367837524,-0.1523831177,9.028475189,0.242700696,0.0957454592,-0.1337947547,-17.35321045,-54.2501297,-1.433166504,9.045701832903248,0,252.26187302210667,185.7895518624043,0.019900999999999947,359.99284164855925,173.79493181356827
372,7.402179917,-0.5095404053,-0.180075531,8.486452332,0.1527160853,0.05372235924,-0.1004644185,-18.73428345,-58.05951691,2.107025146,8.503642266982217,0,252.11647054685673,185.43555054604454,0.019900999999999947,359.99284164855925,174.02774418821778
373,7.422080917,-0.3520678711,-0.2338137817,8.816515961,0.07080855221,0.004777646624,-0.05443139002,-21.90240479,-54.99294281,0.6081237793,8.826640038029279,0,248.2837625635234,186.45006545982878,0.019900999999999947,359.99284164855925,174.27619061365
374,7.441980917,-0.2013313293,-0.2911445618,9.97495697,0.04858852923,0.04173118621,-0.0161513295,-19.71911621,-51.84851837,-3.23236084,9.98123569571298,0,249.17710482957318,187.44584965519843,0.019900000000000695,359.99284164855925,174.53958379448093
375,7.461881917,-0.0643661499,-0.107177124,10.44063858,0.05317763612,0.03309334069,0.02508429438,-17.37091064,-55.65721893,1.002502441,10.441387067595295,0,252.666582567832,188.52564973777552,0.019900999999999947,359.99284164855925,174.81930511334681
376,7.481782917,0.1193019104,0.2008822632,10.81515976,0.09773546457,0.08081136644,0.03639086708,-20.49511719,-57.20337677,3.429595947,10.817683082056744,0,250.2881549520474,189.6042688076869,0.019900999999999947,359.99284164855925,175.11500438723363
377,7.501683917,-0.002395019531,0.6556365967,10.02016296,0.04841878265,-0.02252567559,0.03783083707,-21.74639893,-52.61188507,-1.206298828,10.041590054767566,0,247.5429185976475,190.60058953460364,0.019900999999999947,359.99284164855925,175.42471609018102
378,7.521584917,-0.03248245239,0.8882528687,9.277706909,-0.00589607982,-0.0942061916,0.03312295675,-18.47958374,-52.75130463,-1.979156494,9.320187431472256,0,250.6938666940501,191.62052386538534,0.019900999999999947,359.99284164855925,175.74863224568512
379,7.541485917,-0.03427871704,1.016985168,8.928632812,-0.07371143997,-0.1364348233,0.02266417257,-17.3706665,-57.04299164,2.550048828,8.986429644408114,0,253.06351885924323,192.27237873817268,0.019900999999999947,359.99284164855925,176.07910717553486
380,7.561386917,0.0122744751,0.9479786682,8.773106232,-0.09885082394,-0.1328893751,0.02738050744,-21.40753174,-55.74224091,1.743133545,8.824183088312394,0,248.99096108886,192.89421153638963,0.019900999999999947,359.99284164855925,176.41540926275195
381,7.581287917,0.06556365967,0.9153465271,8.918903046,-0.08964283764,-0.08563797176,0.03535953537,-21.52142334,-51.27359772,-2.400878906,8.965990709458238,0,247.23040732130738,193.53731022637695,0.019900999999999947,359.99284164855925,176.75784728202444
382,7.601188917,0.0001496887207,0.7972421265,8.890162811,-0.1143872291,-0.07267260551,0.02914497629,-17.88589478,-54.14302826,0.1084594727,8.925838326832968,0,251.7192707052626,194.19846531816628,0.019900999999999947,359.99284164855925,177.10665964274727
383,7.621089917,-0.1389111328,0.6577322388,9.158554688,-0.1429721713,-0.07518430799,0.01183844171,-19.08224487,-57.54637909,3.198028564,9.183192907363942,0,251.65459961391733,194.82429237493363,0.019900999999999947,359.99284164855925,177.461012297391
384,7.640990917,-0.2746788025,0.5695655823,9.397158508,-0.1514373422,-0.09022030234,0.001897073584,-21.74252319,-53.71242523,0.01916503906,9.41840970767148,0,247.96214194042955,194.69802888543146,0.019900999999999947,359.99284164855925,177.8057526291518
385,7.660891917,-0.4105961609,0.4273612976,9.445358276,-0.1256869733,-0.1042996347,0.005116835237,-20.32891846,-50.76052094,-2.289215088,9.463932578375328,0,248.17455021414747,194.5468084722697,0.019900999999999947,359.99284164855925,178.14057374601418
386,7.680791917,-0.3653901672,0.4209246826,9.333540802,-0.1224259958,-0.1038386822,0.02151226625,-18.59976196,-55.38573456,2.094390869,9.35016959553714,0,251.4368032076761,194.4295520929561,0.019899999999999807,359.99284164855925,178.466353312953
387,7.700692917,-0.296383667,0.4816983032,9.222322083,-0.1479792893,-0.0999077782,0.05193666369,-20.7166748,-57.04561615,2.972137451,9.239648323175487,0,250.04101311823644,194.32455651926873,0.019900999999999947,359.99284164855925,178.7835173770793
388,7.720594,-0.1577719116,0.468974762,9.35015625,-0.1485304534,-0.07283779979,0.09053192288,-21.56936646,-51.53404999,-1.625427246,9.36323935413898,0,247.28845092658395,194.1810083469154,0.019901083000000597,359.99284164855925,179.091467196476
389,7.740495,-0.1410067749,0.6081852722,9.431886292,-0.1448330283,-0.05264447629,0.1324742138,-19.4107666,-51.63773346,-0.9229736328,9.452526184100533,0,249.3986208099028,194.85512235356927,0.019900999999999947,359.99284164855925,179.40674029961787
390,7.760396,-0.1580712891,0.7903564453,9.514963531,-0.1443621069,-0.0364590846,0.1669550091,-19.103302,-59.91691589,-29.08154297,9.549040833472487,0,252.3161654098917,195.4937283010361,0.019900999999999947,359.99284164855925,179.72848005964624
391,7.780297,-0.07783813477,0.9755213928,9.513766022,-0.132762447,-0.02085890062,0.1864148229,-21.56396484,-58.2142334,-32.4263916,9.563965949562798,0,249.67414758167428,196.12420251986043,0.019900999999999947,359.99284164855925,180.05639450885053
392,7.800198,-0.07454498291,1.323248291,9.413175201,-0.1188984215,0.003129343502,0.2021013349,-21.26815796,-53.36299133,-36.11639404,9.506019690639866,0,248.26993308026272,196.7988475369713,0.019900999999999947,359.99284164855925,180.39124356941292
393,7.820099,-0.1589694214,1.497036896,9.504784698,-0.1138524115,0.04377788305,0.2088194638,-19.31970215,-56.01831055,-31.9559021,9.623269865293215,0,250.97161205835226,197.46704220709705,0.019900999999999947,359.99284164855925,180.7327595421666
394,7.84,-0.1895059204,1.601519623,9.559421082,-0.1213818118,0.05799622089,0.2058485001,-20.16357422,-60.02931213,-29.3260498,9.694498905034068,0,251.4330330508431,198.0912282322377,0.019900999999999947,359.99284164855925,181.07992891596803
395,7.859901,-0.1848655701,1.498982849,9.701026611,-0.1327978969,0.05036460981,0.1960560679,-21.65011597,-56.34585571,-34.17105103,9.817893978238647,0,248.9814186972605,198.7350677015743,0.019900999999999947,359.99284164855925,181.43303169168016
396,7.879802,-0.17902771,1.250349884,10.0011525,-0.1346964985,0.03889838979,0.1696120799,-20.3581543,-52.73736572,-35.63879395,10.080599043788167,0,248.8919639601515,199.4307762321031,0.019900999999999947,359.99284164855925,181.7929865824886
397,7.899702,-0.1348695374,1.025068359,9.974507904,-0.1152171418,0.02283425443,0.1231773198,-19.82675171,-56.97615051,-29.85598755,10.027949085416214,0,250.81295433722545,200.10632355837708,0.019899999999999807,359.99284164855925,182.15925332200635
398,7.919603,-0.03143463135,0.8675958252,9.868827667,-0.09373852611,0.01891215518,0.08666267246,-32.41397095,-60.82309723,-57.47576904,9.906940505165922,0,241.94586155000246,200.72440092083878,0.019901000000000835,359.99284164855925,182.530556273983
399,7.939504,0.1884580994,0.8415499878,9.746531982,-0.0846766457,0.02332976088,0.0579476133,-32.54135132,-56.06984711,-62.81213379,9.78461080029985,0,239.8703343328571,201.36630647638216,0.019900999999999947,359.99284164855925,182.90727127803098
400,7.959405,0.252973938,1.008303223,9.67078949,-0.0810393095,0.03165232018,0.0407426171,-31.35620117,-55.2831955,-60.77871704,9.726501969501363,0,240.43842776817752,202.01254920892578,0.019900999999999947,359.99284164855925,183.28937683664887
401,7.979306,0.325872345,1.012195129,9.774374084,-0.05257123709,0.03458343074,0.03288082406,-31.48950195,-60.35907745,-55.15887451,9.832045590739394,0,242.4488229674451,202.63029432040435,0.019900999999999947,359.99284164855925,183.67619518632398
402,7.999207,0.3668870544,0.9592053223,9.86149292,-2.530496567e-05,0.04358613864,0.02592161112,-32.57342529,-58.73154449,-60.15194702,9.914823426174824,0,240.98657014347515,203.25734947017733,0.019900999999999947,359.99284164855925,184.06781827200106
403,8.019108,0.3614982605,1.061143341,9.778864746,0.04127991199,0.05382075906,0.005337079056,-31.63412476,-54.41086578,-63.59451294,9.842911251406,0,239.8265583009831,203.9076689922639,0.01990099999999906,359.99284164855925,184.4646152864063
404,8.039009,0.38963974,1.178199921,9.541009369,0.06317910552,0.04006720707,-0.03469416499,-31.26556396,-57.37570953,-58.04031372,9.621373808359046,0,241.41284796238585,204.54693745574681,0.019901000000000835,359.99284164855925,184.86626172979314
405,8.05891,0.3453318787,1.166823578,9.387428741,0.07545596361,0.01772820018,-0.06933839619,-32.54931641,-60.73366547,-56.28842163,9.465967976703494,0,241.8115705426735,205.16090100339815,0.01990099999999906,359.99284164855925,185.27215451526524
406,8.078811,0.4087998962,1.415456543,9.322314148,0.056633275,0.01118188445,-0.1080639511,-31.99737549,-57.83621979,-62.48330688,9.438017570139166,0,241.04682715599262,205.80079990569473,0.019901000000000835,359.99284164855925,185.68272742307386
407,8.098712,0.6312373352,1.930834808,9.101822662,-0.03127297759,-0.03654127568,-0.1481574178,-30.34576416,-55.0918808,-62.0390625,9.325757845860656,0,241.15310431117388,206.45829366889663,0.019901000000000835,359.99284164855925,186.0982387479903
408,8.118613,0.5968089294,1.845063171,9.423803101,-0.09078668803,-0.00684850337,-0.1642663181,-31.83261108,-59.31763458,-55.90222168,9.6212527193505,0,241.77991697383223,207.0811583178521,0.01990099999999906,359.99284164855925,186.51789713938754
409,8.138513,0.4023632813,1.844763794,9.710457001,-0.124868162,0.04168401286,-0.1672799885,-32.91711426,-59.95557404,-57.87734985,9.892321508830053,0,241.23210943427256,207.70119591083093,0.019899999999999807,359.99284164855925,186.9415631148164
410,8.158414,0.07843688965,1.861828308,9.635163574,-0.1585900486,0.03730037436,-0.1651899219,-31.12322998,-55.79398346,-63.59820557,9.813711534983314,0,240.84616765991734,208.35645862038845,0.019901000000000835,359.99284164855925,187.36986102492784
411,8.178315,-0.1984872437,1.910028076,9.547296295,-0.1919788867,0.0109346211,-0.1575852036,-30.72161865,-56.56949615,-59.58978271,9.73850455570775,0,241.49461201276057,209.00491374648976,0.01990099999999906,359.99284164855925,187.8025620793591
412,8.198216,-0.2971321106,1.97858551,9.565258942,-0.2025148571,-0.00111948885,-0.1411592662,-32.37796021,-60.30051422,-54.50314331,9.772270296049047,0,241.76672083232603,209.61870961392756,0.019901000000000835,359.99284164855925,188.23888503005045
413,8.218117,-0.2863545227,2.10028244,9.421857147,-0.1966196895,-0.03797096759,-0.1265832633,-31.93588257,-57.83663177,-60.73242188,9.657358714416592,0,241.09366311294679,210.25589142102515,0.01990099999999906,359.99284164855925,188.67922515786995
414,8.238018,-0.160765686,2.119741974,9.423054657,-0.1607676446,-0.07418679446,-0.07123730332,-30.21759033,-55.16689301,-63.19821167,9.659871153951377,0,241.2883358886774,210.8389059327505,0.019901000000000835,359.99284164855925,189.12241877336757
415,8.257919,-0.04475692749,2.238145752,9.470505981,-0.08669690043,-0.05861012638,-0.02674490213,-31.29675293,-57.47978973,-56.65084839,9.731484117333324,0,241.43247111297762,211.37899464054507,0.01990099999999906,359.99284164855925,189.5675502907111
416,8.27782,0.09460327148,2.299518127,9.449250183,-0.01176835038,-0.05151572078,0.003595425049,-33.66534424,-59.08261871,-55.89920044,9.725485202101838,0,240.32545978392614,211.9043720130342,0.019901000000000835,359.99284164855925,190.01428672515758
417,8.297721,0.2436932373,2.441572723,9.322164459,0.04591609165,-0.05874680728,0.02430631407,-31.51843262,-56.26822662,-62.84765625,9.639679141768472,0,240.74479774520142,212.47649951593093,0.01990099999999906,359.99284164855925,190.46353098097305
418,8.317622,0.3396437073,2.379302216,9.400601349,0.0975984484,-0.05953687057,0.03932059556,-46.30911255,-3.372161865,-2.844696045,9.702975966464702,0,184.1648438531145,212.76198492979177,0.019901000000000835,359.99284164855925,190.9095000599494
419,8.337523,0.4034111023,2.323618011,9.445657654,0.1431133151,-0.05026256666,0.05232572183,-49.57376099,-6.748184204,3.344696045,9.735624771686266,0,187.7516923984003,213.01980724401997,0.01990099999999906,359.99284164855925,191.35170620363084
420,8.357424,0.4822970581,2.268083496,9.387428741,0.1865770668,-0.030973766,0.06201134995,-50.12609863,-6.424057007,0.4811706543,9.669572460271052,0,187.30309895300266,213.29511144613315,0.019901000000000835,359.99284164855925,191.7905743084809
421,8.377325,0.4480183411,2.135758667,9.343420258,0.1917631626,-0.03090514429,0.0638596043,-47.03369141,-3.464996338,-5.212890625,9.594878198040474,0,184.2133981476625,213.5951447088746,0.019901000000000835,359.99284164855925,192.22666571648875
422,8.397225,0.5258564758,2.189496918,9.292675781,0.1573780328,-0.06056680903,0.05683078244,-46.99908447,-5.255386353,0.3152770996,9.561602635429702,0,186.38024790476646,213.87470507957204,0.019899999999999807,359.99284164855925,192.65962650375045
423,8.417126,0.732127533,2.534978485,9.267677765,0.1039066315,-0.1230949461,0.04281203449,-50.60934448,-7.609909058,4.204406738,9.635973111204958,0,188.55125600682155,214.14281298963067,0.01990099999999906,359.99284164855925,193.08929023346806
424,8.437027,0.8999285889,2.652334442,9.644294586,0.1200435609,-0.07262532413,0.04088103399,-49.4642334,-4.522140503,-1.795959473,10.042766925448776,0,185.22359873566126,214.434414077032,0.019901000000000835,359.99284164855925,193.51619271033934
425,8.456928,0.8839118958,2.714754639,9.889335022,0.1706949174,0.03363016248,0.03555433825,-46.23516846,-3.739852905,-3.180480957,10.293208448625943,0,184.6244513539433,214.7386303931199,0.01990099999999906,359.99284164855925,193.94064146399495
426,8.476829,0.6150709534,2.940784607,9.647737427,0.1554508209,0.04054348916,0.02583559789,-47.89022827,-6.026504517,3.629364014,10.104719879483106,0,187.17239732648642,215.00857213578834,0.019901000000000835,359.99284164855925,194.36200007743082
427,8.49673,0.4549040222,3.19555481,9.908195801,0.1562290788,0.08317168057,0.02860825881,-51.29992676,-6.355682373,3.207824707,10.420693462725112,0,187.0625358288326,215.2916090465676,0.01990099999999906,359.99284164855925,194.78059225681355
428,8.516631,0.4411326599,3.331322479,10.16221756,0.1719409525,0.05786922947,0.04441373423,-48.22564697,-3.938980103,-2.862304688,10.703409420343291,0,184.66944608943368,215.59751763886143,0.019901000000000835,359.99284164855925,195.19693076445452
429,8.536532,0.6512956238,3.114872589,10.41444305,0.2445758134,0.00223912159,0.05636143684,-45.80844116,-5.386566162,-0.8642883301,10.889776915849923,0,186.7065524342368,215.96920518547012,0.01990099999999906,359.99284164855925,195.61237625287484
430,8.556433,0.7225474548,2.720891876,10.77249847,0.2480495274,-0.05369561538,0.05276686326,-49.28857422,19.94537354,33.07336426,11.134273694834032,0,157.96853122958117,216.17326496390902,0.019901000000000835,359.99284164855925,196.02359402709553
431,8.576334,0.5002597046,1.751358032,11.27620102,0.1320592761,-0.1097094417,0.04892107844,-50.33856201,22.01583862,29.62472534,11.422356331849675,0,156.37757973651867,216.37861341810734,0.01990099999999906,359.99284164855925,196.43069441491576
432,8.596235,0.1767823792,0.1463955688,11.88259003,0.02960341424,-0.2241882086,0.01119184867,-46.84396362,23.9148407,24.84509277,11.88480666621108,0,152.95472078880687,216.58845936239663,0.019901000000000835,359.99284164855925,196.8338497138654
433,8.616136,-0.03547622681,-0.8499325562,11.79352524,0.07268875837,-0.2723114192,-0.07579760253,-47.08081055,21.05796814,30.80609131,11.824165150202967,0,155.9023284938674,216.79418123600016,0.01990099999999906,359.99284164855925,197.23305634430807
434,8.636037,-0.3586541748,-1.345851288,10.90287735,0.1739274263,-0.2158616632,-0.1667698771,-51.37695312,20.17555237,33.1965332,10.99148229383352,0,158.56023504748023,217.00158892441559,0.019901000000000835,359.99284164855925,197.62842699591022
435,8.655937,-0.645308075,-1.258732452,9.738299103,0.2009628117,-0.1382793635,-0.2160357386,-50.04824829,23.02616882,27.50256348,9.840492839124916,0,155.29381437794711,217.21105512352815,0.019899999999999807,359.99284164855925,198.02007955846256
436,8.675838,-0.4185296631,-0.6057902527,8.824000397,0.1904435456,-0.05293834209,-0.2085342854,-45.74353027,21.65707397,26.5602417,8.854667239112779,0,154.66499022237733,217.41975045509218,0.019901000000000835,359.99284164855925,198.40807297639515
437,8.695739,-0.2109114075,-0.02829116821,8.663085022,0.1587266475,0.02297353745,-0.185472846,-47.83987427,18.99258423,32.97357178,8.665698247135834,0,158.34676289207383,217.6245141530914,0.01990099999999906,359.99284164855925,198.79240179992905
438,8.71564025,-0.3025209045,0.04610412598,9.243128815,0.1123458147,0.06055412814,-0.1702737212,-43.6913147,24.04032898,61.14855957,9.248193054795903,0,151.17903248156094,217.80323642361734,0.019901250000000203,359.99284164855925,199.17261849240282
439,8.73554125,-0.3764671326,0.04221221924,9.995015259,0.09448794276,0.0477835089,-0.1673576832,-40.72570801,25.96182251,56.465271,10.002191729867214,0,147.48330600797055,217.97836240787083,0.019901000000000835,359.99284164855925,199.54873337071217
440,8.75544225,-0.233664093,0.1184037781,10.61143341,0.08096770942,-0.01453221962,-0.1884119958,-38.24008179,23.06002808,59.73852539,10.61466614538065,0,148.9086398888726,218.1232791623904,0.01990099999999906,359.99284164855925,199.92022428654576
441,8.77534325,-0.3388952637,0.4779560852,10.87159241,0.05549620837,-0.02723889984,-0.2370402068,-41.93917847,21.6991272,63.97943115,10.887369450345092,0,152.64317421440995,218.27073660900888,0.019901000000000835,359.99284164855925,200.287234532995
442,8.79524425,-0.09819580078,0.7720944214,10.42162811,-0.02425135113,-0.05442870781,-0.2771338224,-43.35626221,24.94915771,59.41479492,10.450650921066591,0,150.08192715243746,218.42345353742712,0.01990099999999906,359.99284164855925,200.64995891308365
443,8.81514525,-0.1525328064,0.9632469177,9.900561676,-0.121908173,-0.127201423,-0.2935236096,-39.09399414,25.18893433,57.54067993,9.948478897890208,0,147.20561870630675,218.56815530408272,0.019901000000000835,359.99284164855925,201.00832284090362
444,8.83504625,0.1517843628,1.207987976,9.448202362,-0.1818165183,-0.1375867724,-0.2881724238,-39.61785889,21.05462646,62.45022583,9.526321499731864,0,152.01191043075772,218.7123732291714,0.01990099999999906,359.99284164855925,201.36240384866895
445,8.85494725,0.2148033142,0.982407074,9.593849487,-0.1491716504,-0.06233923137,-0.294483304,-43.5682373,22.83787537,62.49951172,9.64640928543086,0,152.33708512297918,218.86063365571277,0.019901000000000835,359.99284164855925,201.7123684448098
446,8.87484825,0.2547702026,1.035097504,9.069489899,-0.1451565623,-0.09783710539,-0.3209021091,-53.01898193,20.05183411,62.09188843,9.131921031578344,0,159.28332986538274,219.1895437445836,0.01990099999999906,359.99284164855925,202.0619119508053
447,8.89474925,0.3900888062,0.8836125183,9.137298889,-0.09126883,-0.07058560103,-0.3845379949,-49.18017578,17.25646973,63.63885498,9.188208277250776,0,160.6649137728599,219.52810053272844,0.019901000000000835,359.99284164855925,202.41123572244376
448,8.91465025,0.519868927,0.9038204956,8.98746048,-0.03908611462,-0.04485764727,-0.4625982046,-51.5604248,13.98278809,68.1574707,9.047740108396605,0,164.82677411257833,219.8740767291432,0.01990099999999906,359.99284164855925,202.76049254257777
449,8.93455025,0.5944139099,0.9354048157,8.910819855,-0.03076824918,-0.0434705019,-0.5383421183,-54.34796143,18.41218567,64.81167603,8.979477743932527,0,161.28447434397916,220.20959451771031,0.019899999999999807,359.99284164855925,203.10947458208042
450,8.95445125,0.7258406067,0.8424481201,9.274713135,-0.01413803175,-0.001905289711,-0.6079215407,-50.95449829,19.61805725,62.20562744,9.341138429438685,0,158.94273091747044,220.54149085843918,0.019901000000000835,359.99284164855925,203.45811490760758
451,8.97435225,0.6435118103,0.9193881226,9.40988205,0.01581826434,0.003564226208,-0.6680347919,-44.65951538,37.89135742,58.73809814,9.476563837429984,0,139.68706703347806,220.77197437203895,0.019901000000000835,359.99284164855925,203.8043920968962
452,8.99425325,0.4411326599,0.928818512,9.534423065,0.05978643894,0.004339701496,-0.7466084957,-48.50396729,37.57778931,59.55218506,9.589709330019776,0,142.23375246632932,220.88094093467097,0.01990099999999906,359.99284164855925,204.14592307365172
453,9.01415425,0.2332150269,1.061143341,9.365125122,0.05934986472,-0.01697422937,-0.8262171745,-48.93206787,41.85765076,55.02807617,9.427936305981078,0,139.4555360791151,221.00986998424858,0.019901000000000835,359.99284164855925,204.48320201186365
454,9.03405525,0.3749702454,1.150657196,9.431586914,0.04853364453,-0.05485526472,-0.8927646279,-50.56646729,25.22843933,51.63339233,9.50891404861659,0,153.48463935898616,221.20072094573064,0.01990099999999906,359.99284164855925,204.817552390541
455,9.05395625,0.5099894714,1.102158051,9.722432098,0.07560265064,-0.07326744497,-0.9732444286,-51.18011475,20.46881104,55.79855347,9.797985891526055,0,158.20171248089727,221.37985245347002,0.019901000000000835,359.99284164855925,205.14879839179957
456,9.07385725,0.5626799011,1.257684631,9.718091125,0.0911867246,-0.1128665581,-1.051237702,-26.53277588,21.23539734,60.1579895,9.81527760259277,0,141.32811065005944,221.49570791411523,0.01990099999999906,359.99284164855925,205.4757365822459
457,9.09375825,0.6682104492,1.440005493,9.804611206,0.08677653223,-0.1502189934,-1.132885695,-24.98330688,24.07008362,57.34585571,9.93229691084147,0,136.06654798585438,221.6135323642619,0.019901000000000835,359.99284164855925,205.7984924978862
458,9.11365925,0.8164022827,1.457668762,10.03707779,0.1102393568,-0.1592657417,-1.259926677,-45.03747559,34.66497803,54.55355835,10.175177711933078,0,142.41481439930192,221.73141907763204,0.01990099999999906,359.99284164855925,206.1171510294811
459,9.13356025,0.90681427,1.535057831,9.924362183,0.1473271698,-0.1686847806,-1.350730538,-47.20162964,32.77629089,55.03146362,10.083237545756353,0,145.2243131076056,221.82674828549642,0.019901000000000835,359.99284164855925,206.43134297460142
460,9.15346125,0.8756790161,1.380878448,9.654623108,0.1408479065,-0.220338881,-1.333092213,-31.60049438,-1.68119812,59.10391235,9.792108372813097,0,183.0453583812141,222.15165270832887,0.01990099999999906,359.99284164855925,206.74574916927597
461,9.17336225,0.8885522461,1.358275452,9.880353699,0.165906027,-0.2387726754,-1.436590195,-28.427948,-2.767654419,60.26205444,10.012783155291949,0,185.56061021300883,222.49834070833742,0.019901000000000835,359.99284164855925,207.06080100005718
462,9.19326325,0.7827223206,0.6942562866,9.930948486,0.1958402246,-0.3184892833,-1.562549233,-28.46792603,22.05445862,61.38320923,9.98590926527148,0,142.234607844012,222.58718951004812,0.01990099999999906,359.99284164855925,207.371328770257
463,9.21316325,0.8056246948,0.4740641785,9.963430939,0.2017526776,-0.3922140002,-1.671320796,-31.17105103,24.66143799,57.40744019,10.00718362329936,0,141.65019574657904,222.68124380109919,0.019899999999999807,359.99284164855925,207.67752707087385
464,9.23306425,0.8123606873,0.5072950745,9.65911377,0.1725653261,-0.4425435066,-1.749342799,-44.95449829,-2.744018555,58.77761841,9.706480155065794,0,183.49299540919824,223.02002481502765,0.019901000000000835,359.99284164855925,207.98437702575694
465,9.25296525,0.7174580383,0.4963677979,9.222022705,0.1561839879,-0.4418230653,-1.798765182,-45.67678833,2.620651245,60.07629395,9.263197601209257,0,176.7163228571077,223.30921397932107,0.019901000000000835,359.99284164855925,208.29087376482823
466,9.27286625,0.6830296326,0.5565426636,9.367220764,0.1752847731,-0.4156580865,-1.827833414,-11.40969849,2.715896606,62.01272583,9.40856493079202,0,166.61082067202813,223.51028045560605,0.01990099999999906,359.99284164855925,208.5952618986438
467,9.29276725,0.4572990417,0.6857240295,9.29986084,0.1742889732,-0.4113981426,-1.837893486,-23.93609619,-19.20126343,58.07849121,9.336313592716287,0,218.7361884904259,224.0009267175002,0.019901000000000835,359.99284164855925,208.9033751950209
468,9.31266825,0.3905378723,0.8632548523,9.352102203,0.1316831112,-0.4486447275,-1.850488186,-43.98123169,-13.08848572,57.98202515,9.399975765132458,0,196.5726116794424,224.40979350478017,0.01990099999999906,359.99284164855925,209.2135035612161
469,9.33256925,0.4288581848,0.9419911194,9.445657654,0.0853984952,-0.4489151537,-1.8615309,-26.06433105,0.6791992188,61.14089966,9.502195279421866,0,178.5072916798372,224.68859223761973,0.019901000000000835,359.99284164855925,209.52300533474417
470,9.35247025,0.5303471375,1.033750305,9.655820618,0.04052615166,-0.4398660362,-1.858542681,-11.78677368,-4.154174805,57.13156128,9.725470661430013,0,199.41468779089826,225.05878435479056,0.01990099999999906,359.99284164855925,209.83372091514508
471,9.37237125,0.5336402893,1.025966492,9.918075256,-0.0002365140244,-0.4684917927,-1.858146787,-30.91134644,-5.095458984,57.54159546,9.985268949044409,0,189.3605194019162,224.72436301011658,0.019901000000000835,359.99284164855925,210.1315337570445
472,9.39227225,0.4406835938,1.066382446,9.954299927,-0.03780134395,-0.5044054389,-1.833876014,-32.48971558,-0.02119445801,63.3626709,10.020951081990852,0,180.03737652974502,224.32813954598268,0.01990099999999906,359.99284164855925,210.4154658728233
473,9.41217325,0.2758763123,1.014290771,9.996362457,-0.08495602757,-0.5064787269,-1.788902402,-13.53189087,-3.956832886,56.94940186,10.051475308607344,0,196.29934110097807,224.04823649254112,0.019901000000000835,359.99284164855925,210.68812128521765
474,9.43207425,0.01317260742,0.9955796814,9.762848053,-0.1609593034,-0.5288116336,-1.71158433,-16.55575562,-10.29202271,53.61132812,9.813488397382892,0,211.86749300288196,223.8558809660527,0.01990099999999906,359.99284164855925,210.95147647883437
475,9.45197525,-0.2100132751,1.060394897,9.372759247,-0.1729539931,-0.409616828,-1.57371676,-29.81460571,4.386764526,63.50772095,9.43489050363203,0,171.62985580404572,223.4127780749734,0.019901000000000835,359.99284164855925,211.20070251075714
476,9.47187625,-0.7574249268,0.5783972168,9.220675507,-0.1817619503,-0.3029012084,-1.50323987,-29.66079712,-0.8023376465,69.8237915,9.269794639879011,0,181.54949824845662,223.0294095856387,0.01990099999999906,359.99284164855925,211.43727665225478
477,9.49177725,-0.8020321655,0.9514215088,8.883576508,-0.2802003026,-0.289553076,-1.436439276,3.304626465,-17.38858032,37.88186646,8.970306017934583,0,280.7604991697151,223.188226242518,0.019901000000000835,359.99284164855925,211.67229564406006
478,9.51167825,-0.6863227844,0.9252259827,9.202263794,-0.3239846528,-0.2628442347,-1.320179343,4.470062256,-12.6530304,34.13009644,9.274089767616712,0,289.4572944665888,223.37486644302274,0.01990099999999906,359.99284164855925,211.9063470600393
479,9.53157825,-0.7084767151,0.5090913391,9.87556366,-0.2395466268,-0.110964857,-1.181607366,-16.33374023,35.82987976,69.67492676,9.914023948432751,0,114.50678341942259,222.63723834423513,0.019900000000001583,359.99284164855925,212.12096488572323
480,9.55147925,-0.8026309204,0.5131329346,10.12898666,-0.08162781596,0.1151232123,-1.041505218,-16.97946167,31.59495544,72.47961426,10.1736862818455,0,118.25405214409817,221.95726170702758,0.01990099999999906,359.99284164855925,212.31769082214933
481,9.57138025,-1.062640228,1.014739838,8.948541412,-0.0745100975,0.1052577868,-0.9025773406,-3.0362854,-1.80696106,37.8041687,9.068367802160823,0,210.75781915265867,221.77344952445586,0.019901000000000835,359.99284164855925,212.50680599619545
482,9.59128125,-1.052910461,1.354533234,8.867110748,-0.1367613971,-0.0212290287,-0.7879735827,-1.068878174,0.9764862061,37.29660034,9.031557658465722,0,137.58637227477442,221.1848425612704,0.01990099999999906,359.99284164855925,212.68036672749693
483,9.61118225,-0.6227050781,1.275198212,10.18392242,-0.07135494053,0.01580319367,-0.6729220152,-2.212768555,-2.925354004,43.87475586,10.282323081422708,0,232.89575534287297,221.14908729187448,0.019901000000000835,359.99284164855925,212.84974113878448
484,9.63108325,-0.5947132874,1.07536377,10.85557571,-0.005220361054,0.04762607813,-0.5604684949,-2.538635254,-10.03797913,41.10733032,10.924908014605007,0,255.8073170566796,221.28552489483067,0.01990099999999906,359.99284164855925,213.01845681390543
485,9.65098425,-0.4710704041,1.250649261,10.39094193,-0.0006531500258,-0.1067216098,-0.4957758486,-0.604675293,-6.132598877,35.15435791,10.476531157415174,0,264.3688280567592,221.51854780287604,0.019901000000000835,359.99284164855925,213.18845863368483
486,9.67088525,-0.1387614441,1.340312805,10.52251831,0.0615833737,-0.1658881158,-0.4797132611,0.5226745605,-6.179443359,38.15896606,10.608444030012176,0,274.83472918786157,221.72110403820366,0.01990099999999906,359.99284164855925,213.3591115417752
487,9.69078625,0.143102417,1.668430481,9.934241638,0.07076940686,-0.2745139003,-0.4930620193,-1.25112915,-10.54672241,44.32571411,10.074388095256904,0,263.234772853248,221.83650242791012,0.019901000000000835,359.99284164855925,213.5286593594979
488,9.7106865,0.3505709839,1.996548157,9.369017029,0.06242861226,-0.381931901,-0.5335069895,-3.159484863,-19.2881012,40.86663818,9.585801200090929,0,260.6972888653225,222.03538739431397,0.019900249999999176,359.99284164855925,213.69879392019422
489,9.7305875,0.5963598633,1.922901306,9.204209747,0.07131391019,-0.4471907318,-0.5918906927,-0.7618408203,-16.20585632,37.43145752,9.421818910695617,0,267.3084945187062,222.29060891452949,0.019901000000000835,359.99284164855925,213.87063022008093
490,9.7504885,0.6258485413,1.575174408,9.113049316,0.1325303912,-0.4132971764,-0.6491246819,-1.681610107,-18.37271118,43.60913086,9.269332697023748,0,264.77042573451354,222.41334417665578,0.01990099999999906,359.99284164855925,214.0414844992124
491,9.7703895,0.7708969116,1.62292511,8.870104523,0.1509434581,-0.379140377,-0.7170311809,-7.036956787,-11.46626282,26.64877319,9.050244317692645,0,238.46215547350874,222.43671341360442,0.019901000000000835,359.99284164855925,214.20938907750025
492,9.7902905,0.8665480042,1.320853271,8.916657715,0.06682443619,-0.2664145231,-0.760437727,-5.33795166,-8.970397949,19.80270386,9.055514541623984,0,239.24468986934886,222.54964767356955,0.01990099999999906,359.99284164855925,214.37619424942164
493,9.8101915,1.1373349,1.572030945,8.954978027,-0.1171009839,-0.1356600225,-0.7743461132,-2.691772461,-7.71244812,20.55548096,9.16277487614142,0,250.7601645927325,222.7034041053616,0.019901000000000835,359.99284164855925,214.54273844654043
494,9.8300925,1.472188568,1.588496704,9.428742828,-0.196703881,-0.04421056062,-0.7635500431,-15.62121582,-1.383392334,15.44567871,9.674288205078977,0,185.06082907062722,222.41115514029215,0.01990099999999906,359.99284164855925,214.70010678041547
495,9.8499935,1.137634277,0.8449928284,10.04396347,-0.1459118575,0.06363587081,-0.779130578,-17.16479492,-1.029907227,13.97906494,10.143442552454625,0,183.43369532537983,222.17807033054123,0.019901000000000835,359.99284164855925,214.84966605141798
496,9.8698935,0.7346722412,1.040037231,9.53502182,-0.2217682153,0.0224899929,-0.7973709702,-12.91717529,1.990280151,7.593414307,9.619670568773762,0,171.2407418671601,221.96328739631298,0.019899999999999807,359.99284164855925,214.9919384783159
497,9.8897945,0.6060896301,1.419647827,9.486372986,-0.322182864,0.0392167978,-0.7919213772,-13.36404419,7.076049805,17.43786621,9.611140256074256,0,152.0994888738992,221.54903737745096,0.019901000000000835,359.99284164855925,215.1230804562986
498,9.9096955,0.4707710266,1.43102417,9.653724976,-0.339492023,0.09688927978,-0.743175447,-16.90307617,4.215484619,22.04760742,9.770560958658228,0,165.99657135222031,221.1567052113373,0.01990099999999906,359.99284164855925,215.2437529513994
499,9.9295965,0.4131408691,1.516795807,9.618398438,-0.3068223,0.1195674688,-0.6844449043,-15.68078613,7.106994629,15.77139282,9.746021927431434,0,155.61856479491556,220.81466172244836,0.019901000000000835,359.99284164855925,215.35517112682038
500,9.9494975,0.4650828552,1.604812775,9.640851746,-0.2631275356,0.09342997521,-0.6237563491,-9.56652832,-8.407928467,-6.598297119,9.78456685261823,0,221.3119234122606,220.84944839897236,0.01990099999999906,359.99284164855925,215.46505667226342
501,9.9693985,0.4884342957,1.765578461,9.634714508,-0.195374012,0.06980050355,-0.5588131547,-10.55480957,-10.92596436,-0.3199768066,9.8073217044119,0,225.98988459226325,220.90380420194433,0.019901000000000835,359.99284164855925,215.57383162285703
502,9.9892995,0.4713697815,2.061363373,9.469158783,-0.1448785663,-0.01050981786,-0.5035212636,-14.17556763,-11.2996521,0.2078552246,9.702390245919988,0,218.55910822892375,220.8880661908504,0.01990099999999906,359.99284164855925,215.6801163142169
